ACCELEROMETER X (m/s²),ACCELEROMETER Y (m/s²),ACCELEROMETER Z (m/s²),GRAVITY X (m/s²),GRAVITY Y (m/s²),GRAVITY Z (m/s²),GYROSCOPE X (rad/s),GYROSCOPE Y (rad/s),GYROSCOPE Z (rad/s),MAGNETIC FIELD X (μT),MAGNETIC FIELD Y (μT),MAGNETIC FIELD Z (μT),ORIENTATION Z (azimuth °),ORIENTATION X (pitch °),ORIENTATION Y (roll °),LOCATION Latitude : ,LOCATION Longitude : ,LOCATION Altitude ( m),LOCATION Altitude-google ( m),LOCATION Speed ( Kmh),LOCATION Accuracy ( m),LOCATION ORIENTATION (°),Satellites in range,Time since start in ms ,YYYY-MO-DD HH-MI-SS_SSS
-0.2861,1.1827,10.1095,-0.1936,0.8439,9.7684,-0.1051,0.0195,-0.0073,4.1,16.0,-47.1,351.19,-5.1,1.07,36.814056,-119.74784,251.85,336.70235221782434,3.01,25.806452,202.39,15 / 16,51,2015-10-30 10:29:35:431
-0.243,0.7638,9.8785,-0.2388,0.7921,9.7717,-0.0709,-0.0147,-0.0391,4.4,16.4,-46.9,351.75,-4.78,1.37,36.814056,-119.74784,251.85,336.70235221782434,3.01,25.806452,202.39,15 / 16,153,2015-10-30 10:29:35:533
0.0527,0.8368,9.6426,-0.2436,0.7856,9.7721,0.1503,-0.1161,0.0611,4.9,16.6,-46.5,349.43,-4.59,1.43,36.814056,-119.74784,251.85,336.70235221782434,3.01,25.806452,202.39,15 / 16,256,2015-10-30 10:29:35:636
-0.2286,0.8499,9.8964,-0.2314,0.8423,9.7677,0.1014,-0.0049,0.0525,5.0,16.6,-46.1,349.34,-4.89,1.33,36.814056,-119.74784,251.85,336.70235221782434,3.01,25.806452,202.39,15 / 16,357,2015-10-30 10:29:35:737
-0.3675,0.8344,10.0736,-0.2083,0.8627,9.7664,-0.044,-0.0428,0.0244,5.0,16.6,-45.7,349.16,-5.05,1.22,36.814056,-119.74784,251.85,336.70235221782434,3.01,25.806452,202.39,15 / 16,459,2015-10-30 10:29:35:839
-0.4298,0.8033,9.5313,-0.2167,0.8416,9.7681,-0.0232,-0.0415,0.0501,4.9,16.6,-45.3,349.15,-4.9,1.29,36.814056,-119.74784,251.85,336.70235221782434,3.01,25.806452,202.39,15 / 16,561,2015-10-30 10:29:35:941
-0.5148,0.8332,9.1435,-0.3317,0.6401,9.7801,-0.3201,0.0757,0.0574,4.6,16.9,-45.0,349.74,-4.25,1.69,36.814056,-119.74784,251.85,336.70235221782434,3.01,25.806452,202.39,15 / 16,663,2015-10-30 10:29:36:043
-0.3184,0.7673,10.5177,-0.2929,0.5021,9.7894,-0.0403,-0.0977,0.1002,4.5,17.5,-44.8,349.8,-2.93,1.71,36.814056,-119.74784,251.85,336.70235221782434,3.01,25.806452,202.39,15 / 16,766,2015-10-30 10:29:36:146
-0.1293,0.844,10.1526,-0.2614,0.5938,9.7852,0.215,0.0415,0.0061,4.5,17.8,-44.6,349.37,-3.16,1.47,36.814056,-119.74784,251.85,336.70235221782434,3.01,25.806452,202.39,15 / 16,867,2015-10-30 10:29:36:247
-0.2251,0.8033,9.262,-0.3105,0.7924,9.7697,0.0904,0.0269,-0.1112,4.8,17.7,-44.6,350.22,-4.37,1.67,36.814056,-119.74784,251.85,336.70235221782434,3.01,25.806452,202.39,16 / 16,969,2015-10-30 10:29:36:349
-0.079,1.0463,9.2213,-0.2789,0.8437,9.7663,0.0489,-0.0538,-0.0525,5.0,17.3,-44.7,350.1,-4.83,1.75,36.814056,-119.74784,251.85,336.70235221782434,3.01,25.806452,202.39,16 / 16,1072,2015-10-30 10:29:36:452
-0.7254,0.844,9.7695,-0.1806,0.8228,9.7704,-0.0684,-0.1405,-0.0684,5.2,16.7,-45.2,348.63,-4.81,1.06,36.814056,-119.74784,251.85,336.70235221782434,3.01,25.806452,202.39,16 / 16,1173,2015-10-30 10:29:36:553
-0.4705,0.9984,10.0245,-0.0616,0.8368,9.7707,-0.0147,-0.0464,-0.055,4.9,16.7,-45.5,347.3,-4.91,0.4,36.814056,-119.74784,251.85,336.70235221782434,3.01,25.806452,202.39,16 / 16,1275,2015-10-30 10:29:36:655
-0.3986,0.9505,9.7097,-0.13,0.8812,9.7661,0.0843,0.0721,0.0269,4.6,16.7,-45.4,347.86,-5.01,0.65,36.814056,-119.74784,251.85,336.70235221782434,3.01,25.806452,202.39,16 / 16,1378,2015-10-30 10:29:36:758
0.1101,0.9625,10.0796,-0.1537,0.9093,9.7632,-0.0171,-0.0318,0.1087,4.4,16.7,-45.6,351.22,-5.32,0.9,36.814056,-119.74784,251.85,336.70235221782434,3.01,25.806452,202.39,16 / 16,1479,2015-10-30 10:29:36:859
0.2394,1.0247,9.3314,-0.1377,0.9092,9.7634,0.0819,-0.033,0.0782,4.6,16.5,-45.6,348.34,-5.18,0.81,36.814056,-119.74784,251.85,336.70235221782434,3.01,25.806452,202.39,16 / 16,1581,2015-10-30 10:29:36:961
0.1293,1.1456,9.6331,-0.0943,0.939,9.7611,0.0464,-0.033,-0.0367,4.8,16.2,-46.0,347.58,-5.39,0.67,36.814056,-119.74784,251.85,336.70235221782434,3.01,25.806452,202.39,16 / 16,1683,2015-10-30 10:29:37:063
-0.0922,1.0175,9.5732,-0.0834,0.9692,9.7583,0.0037,-0.0379,-0.1319,4.8,16.1,-46.0,347.32,-5.67,0.49,36.814056,-119.74784,251.85,336.70235221782434,3.01,25.806452,202.39,16 / 16,1786,2015-10-30 10:29:37:166
-0.3855,0.8763,9.8007,-0.0687,0.8946,9.7655,-0.0391,-0.0367,-0.0782,4.7,16.1,-45.9,347.01,-5.29,0.43,36.814056,-119.74784,251.85,336.70235221782434,3.01,25.806452,202.39,16 / 16,1887,2015-10-30 10:29:37:267
-0.2394,1.0259,9.3254,-0.072,0.8885,9.7661,-0.0293,-0.0012,0.0037,4.4,16.2,-46.0,349.55,-5.22,0.36,36.814056,-119.74784,251.85,336.70235221782434,3.01,25.806452,202.39,16 / 16,1990,2015-10-30 10:29:37:370
-0.1389,1.0139,9.7025,-0.0739,0.8433,9.77,-0.0635,0.022,-0.0012,4.3,16.3,-46.1,349.6,-4.93,0.43,36.814056,-119.74784,251.85,336.70235221782434,3.01,25.806452,202.39,16 / 16,2091,2015-10-30 10:29:37:471
-0.0263,0.911,9.8007,-0.073,0.8029,9.7735,-0.0562,0.0195,0.0171,4.2,16.5,-46.4,349.94,-4.88,0.38,36.814056,-119.74784,251.85,336.70235221782434,3.01,25.806452,202.39,16 / 16,2193,2015-10-30 10:29:37:573
-0.0898,0.9313,9.657,-0.0728,0.7745,9.7757,0.0012,-0.0061,0.0342,4.0,16.8,-46.4,349.9,-4.56,0.41,36.814056,-119.74784,251.85,336.70235221782434,3.01,25.806452,202.39,16 / 16,2295,2015-10-30 10:29:37:675
-0.2179,0.8547,10.0173,-0.0535,0.7505,9.7777,-0.0024,-0.011,0.0208,4.0,17.1,-46.3,349.68,-4.43,0.33,36.814056,-119.74784,251.85,336.70235221782434,3.01,25.806452,202.39,16 / 16,2397,2015-10-30 10:29:37:777
-0.0706,0.9182,9.505,-0.0657,0.7711,9.7761,0.0159,0.0208,0.0342,4.0,17.1,-46.0,349.77,-4.49,0.36,36.814056,-119.74784,251.85,336.70235221782434,3.01,25.806452,202.39,16 / 16,2500,2015-10-30 10:29:37:880
-0.17,0.7434,9.8414,-0.0734,0.7524,9.7775,-0.0403,-0.0159,0.0086,4.1,17.1,-45.8,349.88,-4.4,0.43,36.814056,-119.74784,251.85,336.70235221782434,3.01,25.806452,202.39,16 / 16,2602,2015-10-30 10:29:37:982
-0.1197,0.7506,9.6546,-0.0904,0.7315,9.7789,0.0293,0.0073,0.0709,4.1,17.1,-45.8,350.02,-4.25,0.52,36.814056,-119.74784,251.85,336.70235221782434,3.01,25.806452,202.39,16 / 16,2703,2015-10-30 10:29:38:083
-0.103,0.7135,10.0102,-0.0664,0.748,9.7779,0.0,-0.0342,0.0599,4.3,17.0,-45.8,349.96,-4.39,0.47,36.814056,-119.74784,251.85,336.70235221782434,3.01,25.806452,202.39,16 / 16,2806,2015-10-30 10:29:38:186
-0.1197,0.741,9.6019,-0.0647,0.764,9.7766,-0.0024,0.022,0.0183,4.3,17.0,-45.9,349.73,-4.47,0.35,36.814056,-119.74784,251.85,336.70235221782434,3.01,25.806452,202.39,16 / 16,2907,2015-10-30 10:29:38:287
-0.0168,0.8966,9.5672,-0.0778,0.7791,9.7753,0.0134,0.0379,0.033,4.6,16.9,-46.1,347.26,-4.52,0.43,36.814056,-119.74784,251.85,336.70235221782434,3.01,25.806452,202.39,16 / 16,3009,2015-10-30 10:29:38:389
-0.1101,0.9002,9.6762,-0.0867,0.7683,9.7761,-0.0342,-0.0086,0.0049,4.6,16.9,-46.1,347.39,-4.54,0.49,36.814056,-119.74784,251.85,336.70235221782434,3.01,25.806452,202.39,16 / 16,3111,2015-10-30 10:29:38:491
-0.1999,0.7721,9.7695,-0.099,0.7473,9.7776,-0.055,0.0049,-0.0232,4.7,16.8,-46.0,347.49,-4.45,0.56,36.814056,-119.74784,251.85,336.70235221782434,3.01,25.806452,202.39,16 / 16,3215,2015-10-30 10:29:38:595
-0.1987,0.7997,9.5768,-0.1101,0.7219,9.7794,-0.0257,0.0342,-0.0183,4.8,16.7,-46.0,347.48,-4.27,0.59,36.814056,-119.74784,251.85,336.70235221782434,3.01,25.806452,202.39,16 / 16,3315,2015-10-30 10:29:38:695
-0.1149,0.8571,9.8306,-0.106,0.7074,9.7805,-0.022,-0.0012,-0.0305,4.5,16.8,-46.1,347.49,-4.14,0.62,36.814056,-119.74784,251.85,336.70235221782434,3.01,25.806452,202.39,16 / 16,3418,2015-10-30 10:29:38:798
-0.322,0.7542,9.7719,-0.1373,0.7068,9.7802,-0.0024,0.0147,-0.0367,4.2,17.1,-46.1,350.43,-4.12,0.73,36.814056,-119.74784,251.85,336.70235221782434,3.01,25.806452,202.39,16 / 16,3519,2015-10-30 10:29:38:899
-0.4633,0.6895,9.408,-0.1856,0.7186,9.7785,-0.0098,0.0709,-0.0354,3.8,17.4,-45.9,350.9,-4.22,0.92,36.814056,-119.74784,251.85,336.70235221782434,3.01,25.806452,202.39,16 / 16,3621,2015-10-30 10:29:39:001
-0.3077,0.8116,9.93,-0.2,0.6769,9.7812,-0.0892,0.011,-0.0024,3.6,17.7,-45.6,351.77,-4.14,1.15,36.814056,-119.74784,251.85,336.70235221782434,3.01,25.806452,202.39,16 / 16,3724,2015-10-30 10:29:39:104
-0.3304,0.7781,9.7779,-0.2215,0.6414,9.7831,-0.0257,0.011,0.0098,3.6,17.8,-45.3,351.85,-3.78,1.27,36.814056,-119.74784,251.85,336.70235221782434,3.01,25.806452,202.39,16 / 16,3825,2015-10-30 10:29:39:205
-0.2203,0.7889,9.7803,-0.2289,0.6445,9.7828,-0.0012,-0.0086,0.0367,3.8,18.0,-45.2,352.03,-3.76,1.36,36.814056,-119.74784,251.85,336.70235221782434,3.01,25.806452,202.39,16 / 16,3929,2015-10-30 10:29:39:309
-0.237,0.8128,9.6714,-0.2467,0.6598,9.7813,0.0293,0.0379,-0.0159,4.1,17.9,-45.3,352.11,-3.8,1.4,36.814056,-119.74784,251.85,336.70235221782434,3.01,25.806452,202.39,16 / 16,4029,2015-10-30 10:29:39:409
-0.3304,0.7781,9.3984,-0.3119,0.6599,9.7794,-0.0195,0.0965,0.0281,4.8,17.7,-45.2,350.37,-3.86,1.83,36.814056,-119.74784,251.85,336.70235221782434,3.01,25.806452,202.39,16 / 16,4131,2015-10-30 10:29:39:511
-0.4262,0.7314,9.6486,-0.3403,0.6512,9.7791,-0.0232,0.0086,-0.0464,5.2,17.6,-44.8,350.61,-3.85,1.94,36.814056,-119.74784,251.85,336.70235221782434,3.01,25.806452,202.39,16 / 16,4233,2015-10-30 10:29:39:613
-0.3687,0.747,9.6642,-0.3535,0.6389,9.7794,0.0134,0.0208,-0.0086,5.4,17.6,-44.4,350.71,-3.74,2.07,36.814056,-119.74784,251.85,336.70235221782434,3.01,25.806452,202.39,16 / 16,4335,2015-10-30 10:29:39:715
-0.401,0.7207,9.7671,-0.3572,0.6529,9.7784,0.0171,0.0061,-0.0024,5.4,17.7,-44.2,350.78,-3.83,2.09,36.814056,-119.74784,251.85,336.70235221782434,3.01,25.806452,202.39,16 / 16,4437,2015-10-30 10:29:39:817
-0.3891,0.7422,9.6917,-0.3547,0.6588,9.7781,-0.0147,-0.0171,-0.0049,5.0,17.8,-44.7,350.89,-3.85,2.08,36.814056,-119.74784,251.85,336.70235221782434,3.01,25.806452,202.39,16 / 16,4539,2015-10-30 10:29:39:919
-0.3711,0.7781,9.6845,-0.348,0.6594,9.7783,-0.0061,0.0024,-0.0147,4.7,17.9,-44.9,350.81,-3.86,2.04,36.814056,-119.74784,251.85,336.70235221782434,3.01,25.806452,202.39,16 / 16,4642,2015-10-30 10:29:40:022
-0.4489,0.7398,9.7612,-0.3396,0.679,9.7772,0.0,0.0012,-0.0305,4.4,17.9,-44.9,353.36,-3.95,1.97,36.814056,-119.74784,251.85,336.70235221782434,3.01,25.806452,202.39,16 / 16,4744,2015-10-30 10:29:40:124
-0.4776,0.753,9.7169,-0.3386,0.69,9.7765,0.0049,-0.0195,0.0012,4.1,17.9,-45.1,353.45,-4.04,2.0,36.814056,-119.74784,251.85,336.70235221782434,3.01,25.806452,202.39,16 / 16,4845,2015-10-30 10:29:40:225
-0.4178,0.8045,9.5936,-0.3686,0.6915,9.7753,-0.0012,0.0318,0.0086,4.2,17.8,-44.9,353.58,-4.02,2.07,36.814056,-119.74784,251.85,336.70235221782434,3.01,25.806452,202.39,16 / 16,4947,2015-10-30 10:29:40:327
-0.5064,0.7649,9.5708,-0.4134,0.6856,9.7739,-0.0269,0.0586,-0.0379,4.4,17.7,-45.0,354.06,-4.02,2.29,36.814056,-119.74784,251.85,336.70235221782434,3.01,25.806452,202.39,16 / 16,5050,2015-10-30 10:29:40:430
-0.3448,0.7853,9.6307,-0.4414,0.6562,9.7747,-0.0367,0.0391,0.0122,4.9,17.6,-44.7,351.85,-3.89,2.53,36.814056,-119.74784,251.85,336.70235221782434,3.01,25.806452,202.39,16 / 16,5151,2015-10-30 10:29:40:531
-0.5291,0.6967,9.7001,-0.4404,0.6228,9.7769,-0.0379,-0.0012,-0.0098,5.2,17.7,-44.5,351.76,-3.69,2.58,36.814056,-119.74784,251.85,336.70235221782434,3.01,25.806452,202.39,16 / 16,5253,2015-10-30 10:29:40:633
-0.5255,0.6931,9.6845,-0.4273,0.6058,9.7786,-0.0293,-0.011,-0.0037,5.4,17.7,-44.6,351.77,-3.59,2.53,36.814056,-119.74784,251.85,336.70235221782434,3.01,25.806452,202.39,16 / 16,5355,2015-10-30 10:29:40:735
-0.5399,0.6656,9.7683,-0.4274,0.5883,9.7797,0.0049,0.0183,0.0159,5.5,18.1,-44.5,348.75,-3.42,2.47,36.814056,-119.74784,251.85,336.70235221782434,3.01,25.806452,202.39,16 / 16,5457,2015-10-30 10:29:40:837
-0.3675,0.6859,9.6067,-0.4397,0.5917,9.7789,0.0012,0.011,-0.0037,5.6,18.0,-44.6,349.13,-3.46,2.57,36.814056,-119.74784,251.85,336.70235221782434,3.01,25.806452,202.39,16 / 16,5559,2015-10-30 10:29:40:939
-0.5028,0.668,9.7025,-0.4703,0.5792,9.7782,-0.0501,0.0208,-0.0122,5.6,18.1,-44.6,349.43,-3.47,2.72,36.814056,-119.74784,251.85,336.70235221782434,3.01,25.806452,202.39,16 / 16,5661,2015-10-30 10:29:41:041
-0.6117,0.6105,9.5002,-0.4627,0.5789,9.7786,0.0012,0.0049,0.0073,5.8,18.0,-44.8,349.39,-3.38,2.71,36.814056,-119.74784,251.85,336.70235221782434,3.01,25.806452,202.39,16 / 16,5763,2015-10-30 10:29:41:143
-0.5902,0.65,9.6989,-0.4653,0.5648,9.7793,-0.0269,0.0037,0.0122,5.8,18.0,-44.7,349.38,-3.35,2.71,36.814056,-119.74784,251.85,336.70235221782434,3.01,25.806452,202.39,16 / 16,5865,2015-10-30 10:29:41:245
-0.4609,0.6871,9.7061,-0.4614,0.5589,9.7798,-0.0049,0.0024,-0.011,5.8,18.0,-44.9,349.32,-3.28,2.7,36.814056,-119.74784,251.85,336.70235221782434,3.01,25.806452,202.39,16 / 16,5968,2015-10-30 10:29:41:348
-0.5411,0.6369,9.5936,-0.4758,0.5601,9.7791,0.022,-0.0012,0.0086,5.8,17.9,-44.9,349.47,-3.22,2.78,36.814056,-119.74784,251.85,336.70235221782434,3.01,25.806452,202.39,16 / 16,6069,2015-10-30 10:29:41:449
-0.4669,0.7242,9.7887,-0.4665,0.5444,9.7804,-0.0354,-0.0122,-0.0159,5.8,17.9,-44.9,349.38,-3.24,2.73,36.814056,-119.74784,251.85,336.70235221782434,3.01,25.806452,202.39,16 / 16,6171,2015-10-30 10:29:41:551
-0.5722,0.5974,9.7264,-0.4897,0.5297,9.7801,0.0305,-0.044,-0.0159,5.8,18.1,-45.0,349.6,-3.04,2.87,36.814056,-119.74784,251.85,336.70235221782434,3.01,25.806452,202.39,16 / 16,6273,2015-10-30 10:29:41:653
-0.6045,0.6081,9.5744,-0.5182,0.5459,9.7777,0.0086,0.0,-0.0049,5.8,18.1,-45.0,349.95,-3.15,3.01,36.814056,-119.74784,251.85,336.70235221782434,3.01,25.806452,202.39,16 / 16,6376,2015-10-30 10:29:41:756
-0.5303,0.6273,9.7791,-0.5364,0.5612,9.7759,0.0232,0.0452,0.0024,5.6,18.3,-45.1,350.09,-3.2,3.07,36.814056,-119.74784,251.85,336.70235221782434,3.01,25.806452,202.39,16 / 16,6477,2015-10-30 10:29:41:857
-0.6955,0.577,9.6175,-0.5668,0.6066,9.7714,0.0354,0.0195,-0.0391,5.2,18.3,-45.2,353.31,-3.49,3.26,36.814056,-119.74784,251.85,336.70235221782434,3.01,25.806452,202.39,16 / 16,6579,2015-10-30 10:29:41:959
-0.7542,0.6776,9.493,-0.5943,0.6344,9.768,0.0061,0.0281,-0.0171,4.9,18.2,-45.2,353.83,-3.71,3.48,36.814056,-119.74784,251.85,336.70235221782434,3.01,25.806452,202.39,16 / 16,6681,2015-10-30 10:29:42:061
-0.6716,0.7063,9.7013,-0.6108,0.612,9.7685,-0.0354,0.0159,-0.0269,4.9,18.2,-45.2,354.0,-3.65,3.57,36.814056,-119.74784,251.85,336.70235221782434,3.01,25.806452,202.39,16 / 16,6784,2015-10-30 10:29:42:164
-0.7422,0.5962,9.5337,-0.6549,0.5872,9.7671,-0.0281,0.0599,-0.0611,4.9,18.2,-45.1,354.31,-3.51,3.72,36.814056,-119.74784,251.85,336.70235221782434,3.01,25.806452,202.39,16 / 16,6885,2015-10-30 10:29:42:265
-0.8667,0.5267,9.572,-0.7113,0.5205,9.767,-0.0745,0.0244,-0.033,5.0,18.2,-45.1,355.0,-3.25,4.07,36.814056,-119.74784,251.85,336.70235221782434,3.01,25.806452,202.39,16 / 16,6988,2015-10-30 10:29:42:368
-0.6165,0.4872,9.8737,-0.7089,0.4298,9.7715,-0.0452,0.0073,-0.0049,5.3,18.5,-45.4,355.34,-2.61,4.17,36.814056,-119.74784,251.85,336.70235221782434,3.01,25.806452,202.39,16 / 16,7089,2015-10-30 10:29:42:469
-0.7398,0.4369,9.7372,-0.6883,0.3966,9.7744,-0.022,-0.0244,-0.0061,5.6,18.7,-45.5,352.38,-2.4,4.07,36.814056,-119.74784,251.85,336.70235221782434,3.01,25.806452,202.39,16 / 16,7191,2015-10-30 10:29:42:571
-0.4154,0.5926,9.7636,-0.6451,0.371,9.7784,-0.011,-0.0513,0.0183,5.8,19.0,-45.4,351.91,-2.18,3.88,36.814056,-119.74784,251.85,336.70235221782434,3.01,25.806452,202.39,16 / 16,7294,2015-10-30 10:29:42:674
-0.4669,0.5662,9.4703,-0.5805,0.3347,9.7837,-0.0244,-0.0024,-0.0525,5.7,19.1,-45.1,350.8,-1.96,3.4,36.814056,-119.74784,251.85,336.70235221782434,3.01,25.806452,202.39,16 / 16,7395,2015-10-30 10:29:42:775
-0.5231,0.6285,9.9204,-0.5497,0.3239,9.7859,-0.0391,-0.0562,-0.0293,5.4,19.2,-45.0,353.13,-1.89,3.22,36.814056,-119.74784,251.85,336.70235221782434,3.01,25.806452,202.39,16 / 16,7497,2015-10-30 10:29:42:877
-0.4322,0.6321,10.0748,-0.4903,0.3448,9.7883,0.0929,-0.0806,0.0305,5.0,19.4,-44.7,352.75,-1.86,3.04,36.814056,-119.74784,251.85,336.70235221782434,3.01,25.806452,202.39,16 / 16,7599,2015-10-30 10:29:42:979
-0.7015,0.3304,8.5509,-0.4781,0.5755,9.7781,0.3372,-0.121,0.1539,4.6,19.4,-44.4,352.77,-2.81,3.01,36.814056,-119.74784,251.85,336.70235221782434,3.01,25.806452,202.39,16 / 16,7702,2015-10-30 10:29:43:082
-0.5411,0.5962,8.5964,-0.534,0.5678,9.7756,0.215,-0.0098,0.1979,4.6,19.0,-44.4,352.39,-3.12,2.79,36.814056,-119.74784,251.85,336.70235221782434,3.01,25.806452,202.39,16 / 16,7803,2015-10-30 10:29:43:183
-0.2059,0.6081,9.5134,-0.4626,0.6522,9.774,-0.0159,0.0024,0.1698,4.8,18.6,-44.4,352.44,-3.86,2.72,36.814056,-119.74784,251.85,336.70235221782434,3.01,25.806452,202.39,16 / 16,7906,2015-10-30 10:29:43:286
-0.7183,0.6045,9.6798,-0.4514,0.5547,9.7805,-0.011,0.0379,0.1417,5.1,18.2,-44.6,351.86,-3.28,2.62,36.814056,-119.74784,251.85,336.70235221782434,3.01,25.806452,202.39,16 / 16,8007,2015-10-30 10:29:43:387
-0.5555,0.8775,9.7217,-0.4428,0.568,9.7802,0.0269,0.0,0.0098,5.6,18.2,-44.7,349.06,-3.22,2.58,36.814056,-119.74784,251.85,336.70235221782434,3.01,25.806452,202.39,16 / 16,8109,2015-10-30 10:29:43:489
-0.7937,0.6428,9.7564,-0.4709,0.5675,9.7789,-0.0086,0.0232,-0.0611,6.1,18.0,-44.7,349.47,-3.32,2.76,36.814056,-119.74784,251.85,336.70235221782434,3.01,25.806452,202.39,16 / 16,8211,2015-10-30 10:29:43:591
-0.8092,0.6823,9.8474,-0.5474,0.6087,9.7724,-0.0281,0.0672,-0.0709,6.5,17.9,-44.8,347.85,-3.56,3.21,36.814056,-119.74784,251.85,336.70235221782434,3.01,25.806452,202.39,16 / 16,8313,2015-10-30 10:29:43:693
-0.741,0.4561,10.1371,-0.5676,0.5882,9.7725,-0.2199,0.0538,-0.1503,6.7,17.7,-45.1,347.97,-3.83,3.21,36.814056,-119.74784,251.85,336.70235221782434,3.01,25.806452,202.39,16 / 16,8415,2015-10-30 10:29:43:795
-0.7949,0.6764,9.3386,-0.6019,0.51,9.7749,-0.1124,0.0208,-0.022,6.6,17.9,-45.2,348.37,-3.12,3.54,36.814056,-119.74784,251.85,336.70235221782434,3.01,25.806452,202.39,16 / 16,8518,2015-10-30 10:29:43:898
-0.6536,0.6452,10.0149,-0.5798,0.4183,9.7806,-0.1063,-0.0476,-0.0171,6.5,18.2,-45.0,347.96,-2.6,3.46,36.814056,-119.74784,251.85,336.70235221782434,3.01,25.806452,202.39,16 / 16,8619,2015-10-30 10:29:43:999
-0.6057,0.6596,9.8174,-0.5992,0.4231,9.7792,0.0562,-0.0061,0.0648,6.5,18.5,-44.4,348.38,-2.39,3.52,36.814056,-119.74784,251.85,336.70235221782434,3.01,25.806452,202.39,16 / 16,8721,2015-10-30 10:29:44:101
-0.6129,0.5411,9.8988,-0.611,0.4771,9.776,0.0501,0.0293,-0.011,6.5,18.6,-44.0,348.56,-2.73,3.54,36.814056,-119.74784,251.85,336.70235221782434,3.01,25.806452,202.39,16 / 16,8824,2015-10-30 10:29:44:204
-0.6153,0.6548,9.4858,-0.6547,0.5546,9.769,0.0977,0.0684,0.0147,6.6,18.4,-44.0,348.84,-3.24,3.83,36.814056,-119.74784,251.85,336.70235221782434,3.01,25.806452,202.39,16 / 16,8925,2015-10-30 10:29:44:305
-0.5734,0.6596,9.3577,-0.676,0.6048,9.7646,0.0305,0.0183,0.0049,6.7,18.2,-44.1,349.12,-3.46,3.93,36.814056,-119.74784,251.85,336.70235221782434,3.01,25.806452,202.39,16 / 16,9027,2015-10-30 10:29:44:407
-0.6369,0.6524,9.6642,-0.6432,0.6251,9.7655,0.011,-0.0379,0.0257,6.8,17.9,-44.3,349.0,-3.63,3.84,36.814056,-119.74784,251.85,336.70235221782434,3.01,25.806452,202.39,16 / 16,9130,2015-10-30 10:29:44:510
-0.8344,0.5722,9.7169,-0.628,0.6248,9.7666,-0.0037,-0.0305,-0.0024,6.9,17.9,-44.6,348.96,-3.66,3.72,36.814056,-119.74784,251.85,336.70235221782434,3.01,25.806452,202.39,16 / 16,9231,2015-10-30 10:29:44:611
-0.5614,0.6021,9.6103,-0.6144,0.6135,9.7681,-0.0183,-0.033,0.0489,6.8,17.9,-44.5,348.55,-3.61,3.62,36.814056,-119.74784,251.85,336.70235221782434,3.01,25.806452,202.39,16 / 16,9333,2015-10-30 10:29:44:713
-0.4046,0.7386,9.4715,-0.5888,0.6114,9.7698,0.0318,-0.0134,0.0415,6.8,17.8,-44.5,348.17,-3.57,3.45,36.814056,-119.74784,251.85,336.70235221782434,3.01,25.806452,202.39,16 / 16,9435,2015-10-30 10:29:44:815
-0.5878,0.7207,9.6833,-0.5718,0.6146,9.7707,0.0024,-0.0086,-0.0061,6.8,17.8,-44.5,348.04,-3.57,3.38,36.814056,-119.74784,251.85,336.70235221782434,3.01,25.806452,202.39,16 / 16,9538,2015-10-30 10:29:44:918
-0.5794,0.6704,9.8294,-0.5574,0.6151,9.7715,-0.0037,-0.0159,-0.0049,6.8,17.7,-44.6,347.99,-3.6,3.26,36.814056,-119.74784,251.85,336.70235221782434,3.01,25.806452,202.39,16 / 16,9640,2015-10-30 10:29:45:020
-0.6213,0.6943,9.4547,-0.5638,0.6397,9.7695,0.0342,0.0098,0.0086,6.7,17.6,-44.8,348.03,-3.66,3.27,36.814056,-119.74784,251.85,336.70235221782434,3.01,25.806452,202.39,16 / 16,9742,2015-10-30 10:29:45:122
-0.6416,0.7398,9.6199,-0.5657,0.6469,9.7689,0.0134,0.0208,0.011,6.7,17.5,-44.8,348.15,-3.78,3.3,36.814056,-119.74784,251.85,336.70235221782434,3.01,25.806452,202.39,16 / 16,9844,2015-10-30 10:29:45:224
-0.6967,0.7386,9.8893,-0.5619,0.6356,9.7699,-0.0476,-0.0208,-0.0195,6.5,17.5,-44.8,348.15,-3.82,3.3,36.814056,-119.74784,251.85,336.70235221782434,3.01,25.806452,202.39,16 / 16,9945,2015-10-30 10:29:45:325
-0.5686,0.7578,9.487,-0.5594,0.6408,9.7697,-0.0061,0.0122,0.011,6.6,17.5,-44.7,348.09,-3.76,3.28,36.814056,-119.74784,251.85,336.70235221782434,3.01,25.806452,202.39,16 / 16,10048,2015-10-30 10:29:45:428
-0.5303,0.7781,9.3218,-0.5152,0.6349,9.7725,-0.0403,-0.0672,0.0342,6.6,17.5,-44.7,347.8,-3.74,3.15,36.814056,-119.74784,251.85,336.70235221782434,3.01,25.806452,202.39,16 / 16,10149,2015-10-30 10:29:45:529
-0.2382,0.814,9.7947,-0.4336,0.6124,9.7779,-0.0208,-0.1038,0.1344,6.5,17.6,-44.7,346.48,-3.58,2.54,36.814056,-119.74784,251.85,336.70235221782434,3.01,25.806452,202.39,16 / 16,10252,2015-10-30 10:29:45:632
-0.3531,0.7254,9.7695,-0.4279,0.6117,9.7782,-0.0037,-0.1026,-0.0525,6.3,17.6,-44.6,349.27,-3.63,2.61,36.814056,-119.74784,251.85,336.70235221782434,3.01,25.806452,202.39,16 / 16,10353,2015-10-30 10:29:45:733
-0.3915,0.7039,9.5289,-0.4285,0.5956,9.7792,0.0147,-0.0037,0.0318,6.1,17.7,-44.9,348.96,-3.42,2.5,36.814056,-119.74784,251.85,336.70235221782434,3.01,25.806452,202.39,16 / 16,10455,2015-10-30 10:29:45:835
-0.3124,0.7841,9.7217,-0.4348,0.5951,9.7789,-0.0171,0.022,0.0024,5.7,17.9,-45.0,349.08,-3.48,2.55,36.814056,-119.74784,251.85,336.70235221782434,3.01,25.806452,202.39,16 / 16,10558,2015-10-30 10:29:45:938
-0.5962,0.6333,10.149,-0.484,0.5763,9.7777,-0.0415,0.0428,-0.0195,5.5,18.0,-45.2,349.38,-3.35,2.71,36.814056,-119.74784,251.85,336.70235221782434,3.01,25.806452,202.39,16 / 16,10659,2015-10-30 10:29:46:039
-0.3531,0.7219,9.3063,-0.4728,0.6226,9.7754,0.0257,-0.0538,-0.0073,5.3,18.1,-45.1,352.29,-3.64,2.77,36.814056,-119.74784,251.85,336.70235221782434,3.01,25.806452,202.39,16 / 16,10761,2015-10-30 10:29:46:141
-0.5076,0.5016,9.7671,-0.444,0.5554,9.7808,-0.0684,-0.0086,-0.0147,5.1,18.1,-44.8,351.89,-3.47,2.6,36.814056,-119.74784,251.85,336.70235221782434,3.01,25.806452,202.39,16 / 16,10864,2015-10-30 10:29:46:244
-0.1317,1.1827,9.4248,-0.4893,0.472,9.7831,-0.0819,0.0867,0.0403,5.1,18.3,-45.0,352.05,-2.94,2.75,36.814056,-119.74784,251.85,336.70235221782434,3.01,25.806452,202.39,16 / 16,10965,2015-10-30 10:29:46:345
-0.5997,1.0846,10.0533,-0.5605,0.3999,9.7825,-0.0476,0.2248,0.0293,5.2,18.5,-45.0,352.61,-2.39,2.91,36.814056,-119.74784,251.85,336.70235221782434,3.01,25.806452,202.39,16 / 16,11067,2015-10-30 10:29:46:447
-0.2753,1.415,8.9603,-0.7027,0.4589,9.7707,0.0794,0.1772,0.0379,6.0,18.7,-45.0,352.56,-2.68,4.11,36.814056,-119.74784,251.85,336.70235221782434,3.01,25.806452,202.39,16 / 16,11169,2015-10-30 10:29:46:549
-0.9086,1.1049,9.2967,-0.7947,0.4651,9.7633,-0.0574,0.0183,-0.0538,6.7,18.8,-45.0,350.95,-2.93,4.57,36.814056,-119.74784,251.85,336.70235221782434,3.01,25.806452,202.39,16 / 16,11272,2015-10-30 10:29:46:652
-0.7721,1.1815,10.4076,-0.6859,0.4929,9.7702,0.0794,-0.2492,0.1051,7.3,18.7,-44.9,350.58,-2.72,4.43,36.814056,-119.74784,251.85,336.70235221782434,3.01,25.806452,202.39,16 / 16,11373,2015-10-30 10:29:46:753
-1.1935,1.6915,9.3314,-0.7245,0.5284,9.7656,-0.0012,-0.0464,0.0941,7.3,18.7,-45.0,350.01,-2.99,4.11,36.814056,-119.74784,251.85,336.70235221782434,3.01,25.806452,202.39,16 / 16,11475,2015-10-30 10:29:46:855
-0.838,2.0315,10.076,-0.6477,0.5385,9.7704,0.0843,-0.0134,0.0403,6.8,18.9,-44.6,349.61,-3.14,3.89,36.814056,-119.74784,251.85,336.70235221782434,3.01,25.806452,202.39,16 / 16,11577,2015-10-30 10:29:46:957
-0.6069,1.9166,9.6415,-0.6131,0.688,9.7633,0.1161,-0.0806,-0.0195,6.4,18.9,-44.5,351.67,-4.02,3.59,36.814056,-119.74784,251.85,336.70235221782434,3.01,25.806452,202.39,16 / 16,11680,2015-10-30 10:29:47:060
-1.0834,1.8962,9.0309,-0.7724,0.8626,9.7381,0.1319,0.1527,-0.1869,6.2,18.8,-44.4,353.09,-4.72,4.23,36.814056,-119.74784,251.85,336.70235221782434,3.01,25.806452,202.39,16 / 16,11782,2015-10-30 10:29:47:162
-1.3455,1.1133,10.0221,-0.9168,0.8408,9.7274,-0.0428,0.0318,-0.1955,6.2,18.4,-44.3,355.15,-4.92,5.38,36.814056,-119.74784,251.85,336.70235221782434,3.01,25.806452,202.39,16 / 16,11884,2015-10-30 10:29:47:264
-0.6919,0.3651,11.3389,-0.8244,0.8981,9.7306,0.1344,-0.1857,-0.0941,6.4,18.3,-44.2,354.73,-5.02,5.17,36.814056,-119.74784,251.85,336.70235221782434,3.01,25.806452,202.39,16 / 16,11985,2015-10-30 10:29:47:365
-0.7554,0.2693,10.3501,-0.7399,1.0352,9.7237,0.0916,0.066,-0.099,6.4,18.0,-44.2,353.32,-6.06,4.35,36.814056,-119.74784,251.85,336.70235221782434,3.01,25.806452,202.39,16 / 16,12088,2015-10-30 10:29:47:468
-0.0455,0.9038,7.9906,-0.724,1.2741,9.6965,-0.0098,-0.066,-0.1356,6.1,17.7,-44.5,353.59,-6.86,4.4,36.814056,-119.74784,251.85,336.70235221782434,3.01,25.806452,202.39,16 / 16,12190,2015-10-30 10:29:47:570
-0.5219,1.1516,8.4312,-0.7014,1.1214,9.717,-0.1417,-0.0501,-0.2126,5.9,16.9,-44.9,352.9,-6.89,4.08,36.814056,-119.74784,251.85,336.70235221782434,3.01,25.806452,202.39,16 / 16,12292,2015-10-30 10:29:47:672
-0.3208,1.3695,8.4372,-0.6856,1.0613,9.7249,0.0391,-0.0391,-0.0476,5.7,16.9,-45.2,352.72,-6.17,4.08,36.814056,-119.74784,251.85,336.70235221782434,3.01,25.806452,202.39,16 / 16,12394,2015-10-30 10:29:47:774
-0.6369,1.2186,10.0449,-0.6868,1.0501,9.726,0.088,-0.0464,0.1478,5.1,17.2,-45.3,355.22,-6.15,4.04,36.814056,-119.74784,251.85,336.70235221782434,3.01,25.806452,202.39,16 / 16,12495,2015-10-30 10:29:47:875
-0.4489,1.1013,10.0257,-0.6084,1.1981,9.7142,0.0831,-0.2053,0.1967,4.8,17.3,-45.2,354.28,-6.64,3.53,36.814056,-119.74784,251.85,336.70235221782434,3.01,25.806452,202.39,16 / 16,12597,2015-10-30 10:29:47:977
-0.6572,0.8248,8.2265,-0.3864,1.0973,9.7374,-0.2688,-0.0086,0.1234,4.6,17.0,-45.4,351.67,-6.42,2.27,36.814056,-119.74784,251.85,336.70235221782434,3.01,25.806452,202.39,16 / 16,12699,2015-10-30 10:29:48:079
-0.6452,1.1408,8.8442,-0.3455,1.0917,9.7396,-0.1747,0.0281,0.1197,4.4,16.8,-45.2,353.8,-6.69,2.03,36.814056,-119.74784,251.85,336.70235221782434,3.01,25.806452,202.39,16 / 16,12801,2015-10-30 10:29:48:181
-0.7362,1.4461,9.3937,-0.3553,0.8808,9.7605,-0.0538,0.1185,-0.0709,4.4,17.1,-45.0,353.58,-5.15,2.08,36.814056,-119.74784,251.85,336.70235221782434,3.01,25.806452,202.39,16 / 16,12903,2015-10-30 10:29:48:283
-0.9194,1.6855,8.8885,-0.487,0.9043,9.7527,0.0733,0.1295,-0.1136,4.5,17.4,-44.8,352.04,-5.15,2.63,36.814056,-119.74784,251.85,336.70235221782434,3.01,25.806452,202.39,16 / 16,13005,2015-10-30 10:29:48:385
-1.3563,1.1253,10.167,-0.5927,0.9835,9.7392,0.0208,0.0134,-0.1784,4.7,17.8,-44.8,354.13,-5.71,3.42,36.814056,-119.74784,251.85,336.70235221782434,3.01,25.806452,202.39,16 / 16,13107,2015-10-30 10:29:48:487
-1.2342,1.0965,11.0828,-0.5018,1.0609,9.7362,0.0147,-0.1967,0.0452,4.8,17.7,-44.7,354.09,-6.09,3.36,36.814056,-119.74784,251.85,336.70235221782434,3.01,25.806452,202.39,16 / 16,13209,2015-10-30 10:29:48:589
0.0766,0.3699,12.4906,-0.3817,0.9072,9.7571,-0.4044,-0.1368,-0.1747,4.8,17.5,-44.6,352.02,-5.83,2.34,36.814056,-119.74784,251.85,336.70235221782434,3.01,25.806452,202.39,16 / 16,13312,2015-10-30 10:29:48:692
0.5028,0.2813,8.6646,-0.455,0.9975,9.7452,0.2358,-0.1649,-0.0892,4.8,17.6,-44.3,352.97,-5.69,2.92,36.814056,-119.74784,251.85,336.70235221782434,3.01,25.806452,202.39,16 / 16,13413,2015-10-30 10:29:48:793
-0.4609,0.5315,8.5401,-0.5901,0.8835,9.7489,0.1271,0.1038,-0.0953,4.5,17.8,-44.2,353.26,-4.97,3.15,36.814056,-119.74784,251.85,336.70235221782434,3.01,25.806452,202.39,16 / 16,13515,2015-10-30 10:29:48:895
-0.1353,1.3503,8.6933,-0.6845,0.9224,9.7392,-0.0037,-0.0379,0.0428,4.4,17.7,-44.3,357.4,-5.34,3.9,36.814056,-119.74784,251.85,336.70235221782434,3.01,25.806452,202.39,16 / 16,13618,2015-10-30 10:29:48:998
-0.425,1.4246,9.3039,-0.7165,0.9921,9.73,0.0696,0.1295,0.0623,4.5,17.7,-44.3,355.0,-5.47,3.98,36.814056,-119.74784,251.85,336.70235221782434,3.01,25.806452,202.39,16 / 16,13719,2015-10-30 10:29:49:099
-0.7314,1.3886,9.7001,-0.6865,1.1971,9.7091,0.3384,0.0929,0.2639,4.9,17.5,-44.4,355.37,-7.01,4.04,36.814056,-119.74784,251.85,336.70235221782434,3.01,25.806452,202.39,16 / 16,13822,2015-10-30 10:29:49:202
-0.6512,0.0838,14.2647,-0.2416,1.2624,9.7221,-0.1894,-0.0733,-0.1246,5.0,17.0,-44.6,354.59,-8.5,3.52,36.814056,-119.74784,251.85,336.70235221782434,3.01,25.806452,202.39,16 / 16,13923,2015-10-30 10:29:49:303
0.5614,1.4844,9.3122,0.0595,1.3388,9.7146,0.1222,-0.5925,0.4264,4.4,16.4,-44.8,350.95,-7.98,0.61,36.814056,-119.74784,251.85,336.70235221782434,3.01,25.806452,202.39,16 / 16,14026,2015-10-30 10:29:49:406
-1.0714,0.9098,9.2823,-0.1322,0.959,9.7588,-0.3531,0.1063,-0.1503,3.7,16.4,-44.9,349.81,-6.35,0.31,36.814056,-119.74784,251.85,336.70235221782434,3.01,25.806452,202.39,16 / 16,14127,2015-10-30 10:29:49:507
-0.8631,1.4748,8.837,-0.2647,1.0637,9.7452,0.1038,0.1759,-0.0916,3.2,17.0,-44.5,354.55,-5.99,1.24,36.814056,-119.74784,251.85,336.70235221782434,3.01,25.806452,202.39,16 / 16,14229,2015-10-30 10:29:49:609
-0.6117,1.7837,8.9735,-0.5083,1.1563,9.725,0.0806,0.2724,-0.0953,3.2,17.2,-44.4,356.2,-6.42,2.02,36.814056,-119.74784,251.85,336.70235221782434,3.01,25.806452,202.39,16 / 16,14331,2015-10-30 10:29:49:711
-0.8799,1.2067,9.9407,-0.5796,1.2329,9.7116,0.1686,0.1442,-0.0648,3.8,17.2,-44.0,355.97,-6.87,3.17,36.814056,-119.74784,251.85,336.70235221782434,3.01,25.806452,202.39,16 / 16,14434,2015-10-30 10:29:49:814
-0.7685,-0.103,12.6546,-0.2453,1.1676,9.7338,-0.6756,0.0183,-0.3775,3.6,16.9,-44.5,352.56,-6.84,1.44,36.814056,-119.74784,251.85,336.70235221782434,3.01,25.806452,202.39,16 / 16,14535,2015-10-30 10:29:49:915
0.5471,0.6225,7.8841,-0.2714,1.0674,9.7446,-0.27,-0.0819,-0.1747,3.2,17.1,-44.5,356.19,-6.15,2.03,36.814056,-119.74784,251.85,336.70235221782434,3.01,25.806452,202.39,16 / 16,14637,2015-10-30 10:29:50:017
-0.5207,0.8966,8.023,-0.3937,0.9805,9.7496,0.1148,0.1393,-0.0794,2.5,17.4,-44.8,356.84,-5.74,2.31,36.814056,-119.74784,251.85,336.70235221782434,3.01,25.806452,202.39,16 / 16,14739,2015-10-30 10:29:50:119
-0.0455,1.4928,8.3474,-0.4607,1.0327,9.7412,0.0819,0.0941,0.0721,2.4,17.5,-44.5,359.77,-5.98,2.49,36.814056,-119.74784,251.85,336.70235221782434,3.01,25.806452,202.39,16 / 16,14842,2015-10-30 10:29:50:222
-0.1604,1.6089,9.5732,-0.4495,1.0844,9.7361,0.0855,0.0379,0.1833,2.6,17.5,-44.5,357.46,-6.24,2.59,36.814056,-119.74784,251.85,336.70235221782434,3.01,25.806452,202.39,16 / 16,14943,2015-10-30 10:29:50:323
-0.1125,1.5921,12.6127,-0.3012,1.2738,9.7189,0.1979,-0.2724,0.2627,2.7,17.4,-44.4,356.21,-7.04,1.98,36.814056,-119.74784,251.85,336.70235221782434,3.01,25.806452,202.39,16 / 16,15045,2015-10-30 10:29:50:425
-1.7107,-0.0431,11.4168,-0.2357,1.4284,9.6992,-0.1625,-0.1943,-0.2126,2.9,16.7,-44.7,355.34,-8.38,1.39,36.814056,-119.74784,251.85,336.70235221782434,3.01,25.806452,202.39,16 / 16,15147,2015-10-30 10:29:50:527
0.5183,1.4772,7.5908,-0.2481,1.4338,9.6981,-0.1625,-0.0794,0.0061,3.0,16.3,-44.8,355.56,-8.07,1.63,36.814056,-119.74784,251.85,336.70235221782434,3.01,25.806452,202.39,16 / 16,15249,2015-10-30 10:29:50:629
-0.5447,1.4437,8.849,-0.2824,1.1741,9.732,-0.2358,0.1405,0.0428,3.1,15.9,-45.0,355.47,-7.08,1.66,36.814056,-119.74784,251.85,336.70235221782434,3.01,25.806452,202.39,16 / 16,15351,2015-10-30 10:29:50:731
-0.1437,2.0602,8.819,-0.3961,1.1786,9.7275,0.0415,0.2138,0.0171,3.2,16.4,-44.5,356.74,-6.9,2.33,36.814056,-119.74784,251.85,336.70235221782434,3.01,25.806452,202.39,16 / 16,15453,2015-10-30 10:29:50:833
-0.7997,1.5802,9.2273,-0.4893,1.342,9.7021,0.1539,0.055,-0.1772,3.4,16.7,-44.5,357.67,-7.58,2.7,36.814056,-119.74784,251.85,336.70235221782434,3.01,25.806452,202.39,16 / 16,15555,2015-10-30 10:29:50:935
-0.0682,0.6608,10.6925,-0.4428,1.4116,9.6944,-0.1173,-0.2663,-0.1075,3.6,16.5,-44.5,355.1,-8.28,2.62,36.814056,-119.74784,251.85,336.70235221782434,3.01,25.806452,202.39,16 / 16,15657,2015-10-30 10:29:51:037
-0.2574,-0.0407,10.5824,-0.2715,1.0736,9.7439,-0.5339,-0.0965,-0.2627,3.3,16.7,-44.4,355.33,-6.28,1.6,36.814056,-119.74784,251.85,336.70235221782434,3.01,25.806452,202.39,16 / 16,15759,2015-10-30 10:29:51:139
0.2502,0.4621,10.2029,-0.1027,1.0645,9.7482,-0.3482,0.1808,-0.2334,2.7,16.9,-44.1,353.68,-6.81,0.72,36.814056,-119.74784,251.85,336.70235221782434,3.01,25.806452,202.39,16 / 16,15861,2015-10-30 10:29:51:241
-0.3986,1.2534,8.2145,-0.2423,0.9676,9.7558,-0.0611,0.1857,-0.2028,1.9,17.8,-43.5,357.59,-5.66,1.42,36.81412,-119.74789,248.61,336.70235221782434,1.87,19.35484,13.23,16 / 16,15963,2015-10-30 10:29:51:343
-0.3723,1.7178,8.521,-0.4284,0.929,9.7531,0.0134,0.1075,-0.1271,1.7,18.1,-43.2,359.1,-5.48,2.2,36.81412,-119.74789,248.61,336.70235221782434,1.87,19.35484,13.23,16 / 16,16065,2015-10-30 10:29:51:445
-0.6033,1.1444,10.4854,-0.5192,1.0662,9.7347,0.2627,0.0269,0.1686,1.8,18.4,-43.0,0.7,-5.77,3.02,36.81412,-119.74789,248.61,336.7117390288622,1.87,19.35484,13.23,16 / 16,16168,2015-10-30 10:29:51:548
0.0431,1.1049,10.5046,-0.3643,1.433,9.6945,0.0586,-0.4044,0.3396,1.9,18.2,-43.4,359.88,-7.88,2.6,36.81412,-119.74789,248.61,336.7117390288622,1.87,19.35484,13.23,16 / 16,16269,2015-10-30 10:29:51:649
-0.9242,0.152,9.9455,-0.0638,1.4643,9.6965,0.0635,-0.2321,0.088,1.9,17.3,-43.9,355.82,-8.59,0.38,36.81412,-119.74789,248.61,336.7117390288622,1.87,19.35484,13.23,16 / 16,16372,2015-10-30 10:29:51:752
0.1448,0.8248,8.4575,0.0969,1.4025,9.7054,-0.3018,-0.0024,-0.0208,1.7,16.6,-44.3,354.43,-8.99,-0.4,36.81412,-119.74789,248.61,336.7117390288622,1.87,19.35484,13.23,16 / 16,16473,2015-10-30 10:29:51:853
-0.0503,1.4389,8.8226,0.021,1.264,9.7248,0.0574,0.1087,-0.0855,1.4,16.5,-44.3,357.22,-7.41,-0.12,36.81412,-119.74789,248.61,336.7117390288622,1.87,19.35484,13.23,16 / 16,16576,2015-10-30 10:29:51:956
0.0251,1.9022,9.3278,-0.1223,1.3927,9.7065,0.1429,0.0452,-0.3787,1.4,16.6,-44.4,358.89,-8.16,0.72,36.81412,-119.74789,248.61,336.7117390288622,1.87,19.35484,13.23,16 / 16,16678,2015-10-30 10:29:52:058
0.1305,1.5095,9.651,-0.2451,1.5901,9.6738,0.2688,0.1087,-0.3604,1.4,16.6,-44.4,0.27,-9.33,1.45,36.81412,-119.74789,248.61,336.7117390288622,1.87,19.35484,13.23,16 / 16,16779,2015-10-30 10:29:52:159
-0.5076,1.0163,9.8593,-0.3583,1.7748,9.638,0.4142,0.044,-0.3189,1.1,16.2,-44.5,0.63,-9.86,1.63,36.81412,-119.74789,248.61,336.7117390288622,1.87,19.35484,13.23,16 / 16,16881,2015-10-30 10:29:52:261
-0.5938,-0.5902,12.2032,-0.3604,1.6871,9.6537,-0.2431,0.4581,-0.6866,0.5,15.7,-44.7,0.78,-11.21,1.69,36.81412,-119.74789,248.61,336.7117390288622,1.87,19.35484,13.23,16 / 16,16984,2015-10-30 10:29:52:364
0.0407,0.1987,10.6099,-0.4197,1.3338,9.7064,-0.27,-0.4398,-0.3042,-0.3,15.8,-44.9,5.2,-8.19,2.58,36.81412,-119.74789,248.61,336.7117390288622,1.87,19.35484,13.23,16 / 16,17085,2015-10-30 10:29:52:465
0.4369,0.2143,9.2524,-0.3377,1.3121,9.7126,-0.0318,-0.2786,-0.3201,-0.9,16.2,-44.8,7.66,-7.88,2.5,36.81412,-119.74789,248.61,336.7117390288622,1.87,19.35484,13.23,16 / 16,17187,2015-10-30 10:29:52:567
-0.2765,-0.255,10.1466,-0.3745,1.2169,9.7237,-0.2382,-0.1246,-0.5131,-2.2,17.0,-44.4,9.39,-7.13,2.21,36.81412,-119.74789,248.61,336.7117390288622,1.87,19.35484,13.23,16 / 16,17290,2015-10-30 10:29:52:670
-0.0814,-0.0443,10.2843,-0.3857,1.0408,9.7436,-0.0672,0.0171,-0.4007,-3.0,17.2,-44.2,12.1,-6.26,2.15,36.81412,-119.74789,248.61,336.7117390288622,1.87,19.35484,13.23,16 / 16,17392,2015-10-30 10:29:52:772
1.0618,0.6045,9.8964,-0.4581,0.9548,9.7493,-0.0574,0.0843,-0.6304,-4.2,17.4,-44.1,15.58,-5.76,2.53,36.81412,-119.74789,248.61,336.7117390288622,1.87,19.35484,13.23,16 / 16,17494,2015-10-30 10:29:52:874
1.3228,0.5986,9.9707,-0.5156,0.8923,9.7524,-0.0122,0.0,-1.1753,-5.6,17.7,-43.4,20.75,-5.22,3.03,36.81412,-119.74789,248.61,336.7117390288622,1.87,19.35484,13.23,16 / 16,17596,2015-10-30 10:29:52:976
0.6728,0.413,9.7624,-0.5198,0.8776,9.7535,0.1539,-0.2114,-1.6188,-6.9,17.4,-43.3,24.4,-5.07,3.2,36.81412,-119.74789,248.61,336.7117390288622,1.87,19.35484,13.23,16 / 16,17697,2015-10-30 10:29:53:077
-0.0479,0.2717,9.6259,-0.4631,0.8793,9.7562,0.0892,-0.1539,-1.7935,-9.3,16.4,-43.1,29.24,-5.17,2.76,36.81412,-119.74789,248.61,336.7117390288622,1.87,19.35484,13.23,16 / 16,17799,2015-10-30 10:29:53:179
-1.0044,0.3903,9.9311,-0.4428,0.8647,9.7584,0.1087,-0.16,-1.664,-14.2,13.2,-43.2,43.71,-5.04,2.59,36.81412,-119.74789,248.61,336.7117390288622,1.87,19.35484,13.23,16 / 16,17902,2015-10-30 10:29:53:282
-1.415,0.51,9.9156,-0.4752,0.8687,9.7565,0.1258,-0.2236,-1.3366,-17.3,9.9,-43.9,54.22,-5.08,2.79,36.81412,-119.74789,248.61,336.7117390288622,1.87,19.35484,13.23,16 / 16,18004,2015-10-30 10:29:53:384
-1.5131,0.182,9.9551,-0.4237,0.9029,9.7558,0.0892,-0.2089,-1.2083,-19.1,7.6,-43.8,60.44,-5.3,2.71,36.81412,-119.74789,248.61,336.7117390288622,1.87,19.35484,13.23,16 / 16,18105,2015-10-30 10:29:53:485
-1.822,0.4357,9.1231,-0.4809,0.9917,9.7445,0.2199,-0.1332,-0.7978,-20.8,5.3,-43.9,68.48,-5.49,2.7,36.81412,-119.74789,248.61,336.7117390288622,1.87,19.35484,13.23,16 / 16,18207,2015-10-30 10:29:53:587
-1.9812,0.0347,9.9323,-0.4413,0.9908,9.7465,-0.0709,-0.0428,-0.7074,-21.9,3.1,-43.8,72.58,-6.07,2.61,36.81412,-119.74789,248.61,336.7117390288622,1.87,19.35484,13.23,16 / 16,18309,2015-10-30 10:29:53:689
-1.7621,0.5507,9.3589,-0.5308,0.8731,9.7533,-0.0806,-0.0318,-0.485,-23.0,0.7,-43.5,79.49,-5.05,2.96,36.81412,-119.74789,248.61,336.7117390288622,1.87,19.35484,13.23,16 / 16,18411,2015-10-30 10:29:53:791
-1.3324,0.8308,10.1406,-0.5575,0.8263,9.7559,-0.226,0.0208,-0.3604,-23.4,-0.4,-43.6,81.52,-5.1,3.21,36.81412,-119.74789,248.61,336.7117390288622,1.87,19.35484,13.23,16 / 16,18513,2015-10-30 10:29:53:893
-0.9912,1.4688,8.5796,-0.5513,0.8141,9.7572,-0.0489,-0.2395,-0.0709,-23.5,-1.3,-43.6,84.25,-4.84,3.61,36.81412,-119.74789,248.61,336.7117390288622,1.87,19.35484,13.23,16 / 16,18616,2015-10-30 10:29:53:996
-1.4688,2.0327,8.9352,-0.5916,0.6836,9.7649,0.0745,-0.3067,0.2126,-23.6,-1.7,-43.7,87.92,-4.0,3.47,36.81412,-119.74789,248.61,336.7117390288622,1.87,19.35484,13.23,16 / 16,18717,2015-10-30 10:29:54:097
-0.3867,2.2613,9.3218,-0.3281,0.7265,9.7742,-0.0965,-0.2468,0.1698,-23.8,-1.5,-43.3,85.16,-4.34,2.38,36.81412,-119.74789,248.61,336.7117390288622,1.87,19.35484,13.23,16 / 16,18819,2015-10-30 10:29:54:199
-0.8164,2.4277,9.566,-0.2367,0.6319,9.7834,-0.1454,0.011,-0.0623,-24.6,-1.0,-42.8,86.19,-3.69,1.39,36.81412,-119.74789,248.61,336.7117390288622,1.87,19.35484,13.23,16 / 16,18922,2015-10-30 10:29:54:302
-0.4118,2.6923,9.4128,-0.2834,0.7847,9.7711,0.0562,0.0122,-0.1466,-25.1,-0.7,-42.4,85.49,-4.24,1.53,36.81412,-119.74789,248.61,336.7117390288622,1.87,19.35484,13.23,16 / 16,19023,2015-10-30 10:29:54:403
-1.0798,2.1787,9.8797,-0.3991,1.0237,9.7449,0.0904,0.0855,-0.1344,-25.3,-0.7,-42.3,83.55,-5.61,2.26,36.81412,-119.74789,248.61,336.7117390288622,1.87,19.35484,13.23,16 / 16,19125,2015-10-30 10:29:54:505
1.1923,1.5514,10.2723,-0.2491,1.3009,9.7168,0.2407,-0.3274,0.1649,-25.2,-1.2,-42.0,81.05,-7.24,2.11,36.81412,-119.74789,248.61,336.7117390288622,1.87,19.35484,13.23,16 / 16,19227,2015-10-30 10:29:54:607
-1.057,-0.1915,10.914,-0.1747,1.0511,9.7486,0.0599,0.0635,-0.2712,-25.5,-1.6,-41.8,84.19,-6.28,0.53,36.81412,-119.74789,248.61,336.7117390288622,1.87,19.35484,13.23,16 / 16,19329,2015-10-30 10:29:54:709
-0.3172,0.2466,9.578,-0.0473,1.0492,9.7503,-0.0391,-0.226,-0.3067,-26.2,-2.3,-41.8,84.57,-6.14,0.28,36.81412,-119.74789,248.61,336.7117390288622,1.87,19.35484,13.23,16 / 16,19432,2015-10-30 10:29:54:812
-0.0192,1.008,8.242,-0.1859,1.0951,9.7435,0.1185,0.1087,0.0489,-26.5,-2.5,-41.6,84.69,-6.18,1.0,36.81412,-119.74789,248.61,336.7117390288622,1.87,19.35484,13.23,16 / 16,19533,2015-10-30 10:29:54:913
0.3699,1.6305,8.8083,-0.293,1.2533,9.7218,0.0379,0.0904,-0.0794,-26.3,-3.3,-41.8,85.31,-7.26,1.64,36.81412,-119.74789,248.61,336.7117390288622,1.87,19.35484,13.23,16 / 16,19636,2015-10-30 10:29:55:016
-0.3376,1.5562,11.0385,-0.4148,1.3886,9.699,0.2993,-0.0354,0.1686,-25.6,-4.0,-42.1,86.24,-8.14,2.45,36.81412,-119.74789,248.61,336.7117390288622,1.87,19.35484,13.23,16 / 16,19737,2015-10-30 10:29:55:117
0.1999,1.2965,7.7871,-0.3606,1.7607,9.6406,0.3983,0.1112,0.2578,-25.2,-4.5,-42.2,83.41,-9.99,2.84,36.81412,-119.74789,248.61,336.7117390288622,1.87,19.35484,13.23,16 / 16,19839,2015-10-30 10:29:55:219
-0.4393,1.998,8.7436,-0.3103,1.4949,9.6871,0.2016,0.0244,0.2578,-25.3,-4.7,-41.8,87.1,-8.77,1.83,36.81412,-119.74789,248.61,336.7117390288622,1.87,19.35484,13.23,16 / 16,19942,2015-10-30 10:29:55:322
-0.6608,1.5095,9.5672,-0.2545,1.3076,9.7157,-0.4215,0.325,-0.2309,-25.7,-4.6,-41.8,86.04,-9.29,0.41,36.81412,-119.74789,248.61,336.7117390288622,1.87,19.35484,13.23,16 / 16,20043,2015-10-30 10:29:55:423
-0.8236,1.998,7.1802,-0.4542,1.4009,9.6954,0.27,0.171,0.1038,-25.9,-4.1,-41.6,87.13,-7.47,2.01,36.81412,-119.74789,248.61,336.7117390288622,1.87,19.35484,13.23,16 / 16,20146,2015-10-30 10:29:55:526
-0.8104,1.6137,9.6642,-0.503,1.3015,9.7069,-0.0965,0.0379,0.0012,-25.6,-3.8,-41.9,86.45,-8.05,2.79,36.81412,-119.74789,248.61,336.7117390288622,1.87,19.35484,13.23,16 / 16,20247,2015-10-30 10:29:55:627
-0.4848,1.4437,10.9283,-0.487,1.3823,9.6965,0.1002,0.0757,0.1613,-25.0,-3.6,-42.0,86.75,-7.8,3.1,36.81412,-119.74789,248.61,336.7117390288622,1.87,19.35484,13.23,16 / 16,20350,2015-10-30 10:29:55:730
0.2538,0.3783,12.2416,-0.4707,1.1688,9.7254,-0.4997,-0.0599,-0.0819,-24.9,-3.4,-41.9,84.48,-7.89,2.86,36.81412,-119.74789,248.61,336.7117390288622,1.87,19.35484,13.23,16 / 16,20452,2015-10-30 10:29:55:832
0.9553,1.1013,8.0517,-0.4414,1.0184,9.7436,-0.0733,-0.204,-0.0073,-24.8,-2.9,-42.1,87.45,-5.93,3.11,36.81412,-119.74789,248.61,336.7117390288622,1.87,19.35484,13.23,16 / 16,20553,2015-10-30 10:29:55:933
-0.65,0.7266,9.0633,-0.543,0.7475,9.763,0.0806,0.0513,0.0538,-24.9,-2.0,-42.4,87.64,-4.4,3.09,36.81412,-119.74789,248.61,336.7117390288622,1.87,19.35484,13.23,16 / 16,20655,2015-10-30 10:29:56:035
-0.0611,1.4676,9.0249,-0.5354,0.8462,9.7554,0.0538,-0.1869,0.0086,-24.7,-1.6,-42.3,86.83,-4.95,3.14,36.81412,-119.74789,248.61,336.7117390288622,1.87,19.35484,13.23,16 / 16,20757,2015-10-30 10:29:56:137
-0.1987,0.978,10.6195,-0.3096,1.0534,9.745,0.2492,-0.193,0.0562,-24.8,-1.6,-42.0,85.6,-5.65,2.21,36.81412,-119.74789,248.61,336.7117390288622,1.87,19.35484,13.23,16 / 16,20860,2015-10-30 10:29:56:240
-0.1053,0.7829,9.3242,-0.2257,1.345,9.7114,0.4007,-0.2224,0.3506,-25.1,-1.9,-41.6,83.75,-6.71,1.42,36.81412,-119.74789,248.61,336.7117390288622,1.87,19.35484,13.23,16 / 16,20961,2015-10-30 10:29:56:341
-0.4345,0.8164,8.7424,-0.0748,1.1771,9.7355,0.182,-0.0831,0.2602,-25.9,-2.3,-41.3,83.56,-6.92,0.16,36.81412,-119.74789,248.61,336.7117390288622,1.87,19.35484,13.23,16 / 16,21064,2015-10-30 10:29:56:444
-0.4441,0.68,9.3027,0.0472,1.0584,9.7493,-0.3714,-0.0525,-0.0867,-26.4,-2.3,-41.1,83.34,-6.96,-0.38,36.81412,-119.74789,248.61,336.7117390288622,1.87,19.35484,13.23,16 / 16,21165,2015-10-30 10:29:56:545
-0.4896,1.0894,9.0597,-0.0963,0.8348,9.7706,0.0159,0.1429,0.1393,-26.8,-1.7,-40.9,86.98,-4.81,0.27,36.81412,-119.74789,248.61,336.7117390288622,1.87,19.35484,13.23,16 / 16,21267,2015-10-30 10:29:56:647
-0.2562,1.6017,8.6131,-0.1826,0.9688,9.757,0.0977,0.1197,0.1332,-26.6,-1.3,-40.8,84.19,-5.38,0.84,36.81412,-119.74789,248.61,336.7117390288622,1.87,19.35484,13.23,16 / 16,21369,2015-10-30 10:29:56:749
-0.7685,0.7949,12.0476,-0.2505,1.0237,9.7499,0.0745,0.1063,0.0599,-26.3,-0.8,-41.1,83.22,-5.99,1.47,36.81412,-119.74789,248.61,336.7117390288622,1.87,19.35484,13.23,16 / 16,21471,2015-10-30 10:29:56:851
0.972,0.7027,10.9642,0.152,1.5383,9.6841,0.441,-0.5852,0.2236,-26.2,-1.0,-41.0,77.75,-9.02,-0.9,36.81412,-119.74789,248.61,336.7117390288622,1.87,19.35484,13.23,16 / 16,21574,2015-10-30 10:29:56:954
-0.6823,0.2933,9.0441,-0.0244,1.5501,9.6833,0.2407,-0.3873,0.0269,-26.2,-1.5,-41.1,78.4,-8.97,0.29,36.81412,-119.74789,248.61,336.7117390288622,1.87,19.35484,13.23,16 / 16,21676,2015-10-30 10:29:57:056
-0.9242,0.6309,8.4025,0.0673,1.5535,9.6826,-0.2236,0.1845,0.0684,-26.5,-2.4,-41.2,79.97,-9.12,-0.4,36.81412,-119.74789,248.61,336.7117390288622,1.87,19.35484,13.23,16 / 16,21778,2015-10-30 10:29:57:158
0.2179,1.7549,8.4455,-0.2067,1.2992,9.718,-0.3005,0.5486,0.193,-26.3,-2.6,-41.6,84.65,-7.61,1.22,36.81412,-119.74789,248.61,336.7117390288622,1.87,19.35484,13.23,16 / 16,21879,2015-10-30 10:29:57:259
-0.1592,2.0075,9.651,-0.6484,1.1668,9.7154,0.0024,0.0904,0.0086,-25.2,-2.0,-42.0,84.31,-6.76,3.7,36.81412,-119.74789,248.61,336.7117390288622,1.87,19.35484,13.23,16 / 16,21982,2015-10-30 10:29:57:362
-1.1648,1.4593,11.7268,-0.6774,1.3197,9.6938,0.4191,0.0073,0.1808,-24.5,-1.5,-42.5,81.4,-7.2,3.91,36.81412,-119.74789,248.61,336.7117390288622,1.87,19.35484,13.23,16 / 16,22084,2015-10-30 10:29:57:464
-1.7573,-0.2167,11.4263,-0.4486,1.2765,9.7129,-0.3445,-0.4765,-0.2053,-23.8,-1.2,-42.9,79.17,-8.12,2.43,36.81412,-119.74789,248.61,336.7117390288622,1.87,19.35484,13.23,16 / 16,22185,2015-10-30 10:29:57:565
0.1018,1.3647,8.0026,-0.2834,1.407,9.7011,0.1552,-0.485,0.1234,-24.0,-1.2,-43.2,79.4,-8.0,2.52,36.81412,-119.74789,248.61,336.7117390288622,1.87,19.35484,13.23,16 / 16,22287,2015-10-30 10:29:57:667
-1.1193,0.9146,8.9376,-0.2674,1.1479,9.7356,-0.0208,-0.1588,-0.088,-24.6,-1.2,-43.0,81.4,-6.72,1.57,36.81412,-119.74789,248.61,336.7117390288622,1.87,19.35484,13.23,16 / 16,22389,2015-10-30 10:29:57:769
-0.3639,1.6412,9.0932,-0.3514,1.1417,9.7336,-0.0403,0.182,-0.0855,-24.9,-1.0,-42.9,81.47,-6.64,1.38,36.81412,-119.74789,248.61,336.7117390288622,1.87,19.35484,13.23,16 / 16,22492,2015-10-30 10:29:57:872
-0.6213,1.3324,10.0473,-0.4366,1.3297,9.7063,0.1869,0.0367,-0.1552,-25.1,-1.3,-42.3,80.83,-7.47,2.47,36.81412,-119.74789,248.61,336.7117390288622,1.87,19.35484,13.23,16 / 16,22593,2015-10-30 10:29:57:973
-0.0778,0.8416,9.681,-0.4759,1.5339,9.6742,0.0489,-0.4386,0.022,-25.0,-2.0,-42.6,80.46,-9.0,2.82,36.81412,-119.74789,248.61,336.7117390288622,1.87,19.35484,13.23,16 / 16,22695,2015-10-30 10:29:58:075
0.2083,1.0678,9.0118,-0.372,1.1728,9.7292,0.0489,-0.3286,0.1686,-24.9,-2.7,-42.7,85.61,-6.87,2.19,36.81412,-119.74789,248.61,336.7117390288622,1.87,19.35484,13.23,16 / 16,22797,2015-10-30 10:29:58:177
-0.1161,0.5758,10.155,-0.0861,1.0263,9.7524,-0.4325,-0.2236,-0.1515,-25.3,-2.5,-42.5,83.54,-6.75,0.89,36.81412,-119.74789,248.61,336.7117390288622,1.87,19.35484,13.23,16 / 16,22900,2015-10-30 10:29:58:280
-0.2191,1.0271,8.5832,-0.0902,0.8596,9.7685,-0.0538,0.0929,-0.1918,-25.9,-1.7,-42.2,86.38,-5.03,0.53,36.81412,-119.74789,248.61,336.7117390288622,1.87,19.35484,13.23,16 / 16,23001,2015-10-30 10:29:58:381
-0.1664,1.2019,8.4192,-0.2493,0.9052,9.7616,0.0648,0.099,-0.066,-26.0,-1.4,-42.1,84.22,-5.17,1.35,36.81412,-119.74789,248.61,336.7117390288622,1.87,19.35484,13.23,16 / 16,23103,2015-10-30 10:29:58:483
-0.2538,0.7985,11.9279,-0.322,0.9853,9.7517,0.1112,0.0696,-0.0208,-25.8,-1.5,-42.3,83.46,-5.77,1.89,36.81412,-119.74789,248.61,336.7117390288622,1.87,19.35484,13.23,16 / 16,23205,2015-10-30 10:29:58:585
0.2203,0.6009,9.7827,-0.2391,1.3751,9.7068,0.4924,-0.1735,0.2566,-25.6,-2.0,-42.5,84.41,-6.51,1.84,36.81412,-119.74789,248.61,336.7117390288622,1.87,19.35484,13.23,16 / 16,23307,2015-10-30 10:29:58:687
-0.9278,0.0862,9.8198,-0.1952,1.2841,9.7203,0.3042,-0.1625,0.1686,-25.6,-2.6,-42.7,84.98,-7.26,1.4,36.81412,-119.74789,248.61,336.7117390288622,1.87,19.35484,13.23,16 / 16,23409,2015-10-30 10:29:58:789
0.0874,0.6273,9.6211,0.0028,1.2616,9.7252,-0.1185,-0.3164,-0.0391,-25.7,-2.9,-42.8,83.42,-8.01,0.15,36.81412,-119.74789,248.61,336.7117390288622,1.87,19.35484,13.23,16 / 16,23511,2015-10-30 10:29:58:891
-0.0431,0.8655,9.4547,-0.091,1.1687,9.7363,0.0843,0.0562,-0.1307,-26.1,-3.2,-42.6,85.57,-6.73,0.43,36.81412,-119.74789,248.61,336.7117390288622,1.87,19.35484,13.23,16 / 16,23614,2015-10-30 10:29:58:994
0.1065,1.7538,8.7712,-0.2575,1.4088,9.7015,0.2688,0.0061,-0.1833,-26.0,-3.6,-42.3,86.53,-7.79,1.47,36.81412,-119.74789,248.61,336.7117390288622,1.87,19.35484,13.23,16 / 16,23715,2015-10-30 10:29:59:095
-0.5722,1.2773,9.9072,-0.3578,1.5355,9.6791,0.2162,0.0415,-0.3971,-25.8,-4.4,-42.3,85.08,-8.83,1.94,36.81412,-119.74789,248.61,336.7117390288622,1.87,19.35484,13.23,16 / 16,23818,2015-10-30 10:29:59:198
-0.753,0.8392,9.3649,-0.4624,1.7283,9.6421,0.2419,-0.1002,-0.3812,-25.3,-6.2,-42.5,87.29,-10.15,2.75,36.81412,-119.74789,248.61,336.7117390288622,1.87,19.35484,13.23,16 / 16,23920,2015-10-30 10:29:59:300
0.1867,0.5782,10.0916,-0.3392,2.0109,9.5923,-0.2578,-0.2382,-0.3861,-25.2,-7.8,-42.7,88.37,-11.83,2.45,36.81412,-119.74789,248.61,336.7117390288622,1.87,19.35484,13.23,16 / 16,24021,2015-10-30 10:29:59:401
-0.5303,0.3986,9.3218,-0.3247,1.6338,9.6641,0.0171,0.0501,-0.1283,-25.2,-9.3,-42.6,94.01,-9.59,1.92,36.81412,-119.74789,248.61,336.7117390288622,1.87,19.35484,13.23,16 / 16,24123,2015-10-30 10:29:59:503
0.4429,0.6859,9.104,-0.3016,1.5841,9.6732,-0.0208,-0.1002,-0.1332,-25.3,-9.9,-42.4,96.7,-9.46,1.95,36.81412,-119.74789,248.61,336.7117390288622,1.87,19.35484,13.23,16 / 16,24225,2015-10-30 10:29:59:605
-0.0742,0.2586,9.8533,-0.342,1.4615,9.6911,-0.0403,0.0904,-0.2871,-25.4,-9.9,-42.0,97.76,-8.79,1.83,36.81412,-119.74789,248.61,336.7117390288622,1.87,19.35484,13.23,16 / 16,24327,2015-10-30 10:29:59:707
0.4776,0.8499,9.9395,-0.415,1.3588,9.7032,-0.1943,0.0599,-0.5547,-25.4,-10.2,-42.1,98.99,-7.96,2.45,36.81412,-119.74789,248.61,336.7117390288622,1.87,19.35484,13.23,16 / 16,24429,2015-10-30 10:29:59:809
1.3707,0.9349,9.6845,-0.5234,1.2115,9.7174,-0.0195,0.0513,-0.7391,-25.0,-10.8,-42.5,102.23,-7.1,3.08,36.81412,-119.74789,248.61,336.7117390288622,1.87,19.35484,13.23,16 / 16,24531,2015-10-30 10:29:59:911
1.4257,0.5435,10.1287,-0.5293,1.159,9.7235,0.0195,-0.193,-1.405,-24.5,-11.8,-42.5,104.92,-6.94,3.19,36.81412,-119.74789,248.61,336.7117390288622,1.87,19.35484,13.23,16 / 16,24633,2015-10-30 10:30:00:013
0.8835,0.1245,9.7923,-0.4376,1.0898,9.7361,-0.077,-0.2908,-2.0464,-23.3,-14.3,-42.3,110.64,-6.38,2.57,36.81412,-119.74789,248.61,336.7117390288622,1.87,19.35484,13.23,16 / 16,24735,2015-10-30 10:30:00:115
-0.6584,-0.2071,9.651,-0.3136,0.8184,9.7674,-0.0794,-0.3519,-2.1857,-20.1,-20.4,-41.9,127.16,-5.1,1.98,36.81412,-119.74789,248.61,336.7117390288622,1.87,19.35484,13.23,16 / 16,24837,2015-10-30 10:30:00:217
-1.1396,-0.4489,9.9491,-0.2052,0.6656,9.7819,-0.0538,-0.226,-2.0659,-17.4,-23.5,-42.0,138.1,-4.14,1.21,36.814156,-119.74779,247.52,336.7117390288622,3.98,25.806452,184.04,16 / 16,24939,2015-10-30 10:30:00:319
-2.2936,-0.2023,9.5864,-0.2041,0.629,9.7843,0.088,-0.0855,-1.306,-13.4,-26.6,-41.7,150.42,-3.66,1.07,36.814156,-119.74779,247.52,336.7117390288622,3.98,25.806452,184.04,16 / 16,25042,2015-10-30 10:30:00:422
-2.4457,0.0311,9.9048,-0.1472,0.6703,9.7826,0.0757,-0.215,-0.6524,-12.5,-27.5,-41.4,152.02,-3.82,1.22,36.814156,-119.74779,247.52,336.7117390288622,3.98,25.806452,184.04,16 / 16,25143,2015-10-30 10:30:00:523
-1.8986,0.5183,9.5481,-0.0322,0.7521,9.7777,0.1808,-0.2969,-0.4435,-10.7,-28.8,-41.0,156.36,-4.18,0.5,36.814156,-119.74779,247.52,336.7117390288622,3.98,25.806452,184.04,16 / 16,25245,2015-10-30 10:30:00:625
-1.9381,0.6225,9.7348,0.0253,0.7536,9.7776,-0.0232,-0.1112,-0.4838,-9.2,-29.9,-40.7,161.51,-4.5,-0.1,36.814156,-119.74779,247.52,336.7117390288622,3.98,25.806452,184.04,16 / 16,25347,2015-10-30 10:30:00:727
-0.826,0.6596,10.003,0.0305,0.7597,9.7771,-0.3629,0.1686,-0.6353,-8.4,-30.5,-40.1,163.42,-4.54,-0.06,36.814156,-119.74779,247.52,336.7117390288622,3.98,25.806452,184.04,16 / 16,25449,2015-10-30 10:30:00:829
-0.3352,1.8603,7.3418,-0.203,0.7032,9.7793,0.2395,0.1454,-0.1723,-7.1,-30.8,-39.8,164.41,-4.11,1.19,36.814156,-119.74779,247.52,336.7117390288622,3.98,25.806452,184.04,16 / 16,25551,2015-10-30 10:30:00:931
-0.0802,1.6628,9.7636,-0.0575,0.439,9.7967,-0.303,0.0428,-0.2773,-6.1,-30.9,-39.7,167.95,-3.0,0.23,36.814156,-119.74779,247.52,336.7117390288622,3.98,25.806452,184.04,16 / 16,25653,2015-10-30 10:30:01:033
-0.3519,1.2474,10.5872,0.034,0.2176,9.8042,-0.2309,-0.0696,-0.0452,-5.3,-30.5,-40.2,169.88,-1.84,0.18,36.814156,-119.74779,247.52,336.7117390288622,3.98,25.806452,184.04,16 / 16,25756,2015-10-30 10:30:01:136
-0.1149,1.8459,9.8893,0.1134,0.0635,9.8058,-0.2957,0.0098,-0.1063,-5.1,-29.7,-40.8,171.03,-0.68,-0.47,36.814156,-119.74779,247.52,336.7117390288622,3.98,25.806452,184.04,16 / 16,25857,2015-10-30 10:30:01:237
0.0515,2.1488,9.7516,0.0713,-0.0185,9.8064,-0.1002,0.0208,-0.0929,-5.0,-29.0,-41.4,170.84,0.12,-0.43,36.814156,-119.74779,247.52,336.7117390288622,3.98,25.806452,184.04,16 / 16,25959,2015-10-30 10:30:01:339
-0.3496,1.883,9.7707,0.032,0.1064,9.806,0.1552,0.1454,-0.0305,-5.0,-28.2,-41.8,169.99,-0.62,-0.19,36.814156,-119.74779,247.52,336.7117390288622,3.98,25.806452,184.04,16 / 16,26061,2015-10-30 10:30:01:441
-0.3208,1.2809,11.297,0.0853,0.4978,9.7936,0.248,-0.1588,0.1185,-4.9,-28.1,-42.0,169.3,-2.51,-0.08,36.814156,-119.74779,247.52,336.7117390288622,3.98,25.806452,184.04,16 / 16,26164,2015-10-30 10:30:01:544
0.3256,1.0702,10.3693,0.1928,0.9106,9.7624,0.5669,-0.1674,0.4142,-5.0,-29.0,-41.6,169.55,-4.78,-0.43,36.814156,-119.74779,247.52,336.7117390288622,3.98,25.806452,184.04,16 / 16,26265,2015-10-30 10:30:01:645
-1.2103,0.7781,8.9603,0.0246,0.7953,9.7743,0.1857,0.1869,0.2883,-5.3,-29.6,-41.4,170.57,-4.54,-0.8,36.814156,-119.74779,247.52,336.7117390288622,3.98,25.806452,184.04,16 / 16,26368,2015-10-30 10:30:01:748
-0.7817,1.0139,9.4751,0.0597,0.7771,9.7756,-0.0476,0.2492,-0.022,-5.9,-30.3,-40.7,168.52,-4.78,-0.87,36.814156,-119.74779,247.52,336.7117390288622,3.98,25.806452,184.04,16 / 16,26469,2015-10-30 10:30:01:849
-0.2382,1.634,8.2744,0.0028,0.8912,9.7661,0.1478,0.0195,0.2859,-6.3,-30.3,-40.7,167.18,-5.11,-0.04,36.814156,-119.74779,247.52,336.7117390288622,3.98,25.806452,184.04,16 / 16,26572,2015-10-30 10:30:01:952
-0.0982,1.7597,9.4391,0.0324,1.0409,9.7512,0.099,-0.099,0.044,-6.5,-30.4,-40.7,166.57,-5.96,0.15,36.814156,-119.74779,247.52,336.7117390288622,3.98,25.806452,184.04,16 / 16,26674,2015-10-30 10:30:02:054
0.3783,0.7087,10.167,0.1139,1.1706,9.7359,0.3641,0.055,-0.0122,-6.7,-30.6,-40.8,165.86,-6.86,-0.67,36.814156,-119.74779,247.52,336.7117390288622,3.98,25.806452,184.04,16 / 16,26775,2015-10-30 10:30:02:155
-0.7961,-0.3184,13.6733,0.0775,0.8807,9.7667,0.0281,0.6035,-0.3763,-6.7,-30.9,-40.5,166.6,-6.47,-1.06,36.814156,-119.74779,247.52,336.7117390288622,3.98,25.806452,184.04,16 / 16,26878,2015-10-30 10:30:02:258
0.747,1.1301,9.8258,-0.0484,0.9921,9.7562,0.0709,-0.529,0.1112,-6.0,-30.8,-40.8,166.92,-5.81,0.28,36.814156,-119.74779,247.52,336.7117390288622,3.98,25.806452,184.04,16 / 16,26979,2015-10-30 10:30:02:359
-0.9541,0.747,7.8841,-0.0831,0.8109,9.7727,0.0782,-0.1637,0.0086,-5.2,-30.7,-41.1,168.65,-4.62,0.75,36.814156,-119.74779,247.52,336.7117390288622,3.98,25.806452,184.04,16 / 16,27081,2015-10-30 10:30:02:461
-0.4345,1.3719,8.4743,-0.1326,0.8084,9.7724,-0.0586,0.0513,-0.033,-4.3,-30.4,-41.4,170.25,-4.73,0.78,36.814156,-119.74779,247.52,336.7117390288622,3.98,25.806452,184.04,16 / 16,27183,2015-10-30 10:30:02:563
-0.5303,1.2929,9.8462,-0.1451,0.7974,9.7731,-0.0134,0.0257,0.0489,-4.1,-30.3,-41.5,170.13,-4.61,0.88,36.814156,-119.74779,247.52,336.7117390288622,3.98,25.806452,184.04,16 / 16,27285,2015-10-30 10:30:02:665
0.0335,1.2498,9.8318,-0.0585,1.0204,9.7532,0.3677,-0.1222,0.4423,-4.0,-30.2,-41.6,170.21,-5.36,0.65,36.814156,-119.74779,247.52,336.7117390288622,3.98,25.806452,184.04,16 / 16,27388,2015-10-30 10:30:02:768
-2.1033,-0.3855,9.3685,0.153,0.6739,9.7823,0.226,0.4227,0.2602,-4.6,-30.2,-41.7,170.88,-3.94,-0.9,36.814156,-119.74779,247.52,336.7117390288622,3.98,25.806452,184.04,16 / 16,27489,2015-10-30 10:30:02:869
0.5339,1.1145,7.8386,0.2772,0.9276,9.7587,0.2175,-0.5767,0.3946,-5.1,-30.1,-41.6,170.14,-5.07,-0.61,36.814156,-119.74779,247.52,336.7117390288622,3.98,25.806452,184.04,16 / 16,27592,2015-10-30 10:30:02:972
-0.1867,1.1815,9.3925,0.2455,0.6869,9.7795,0.1038,-0.0843,0.1466,-5.9,-29.8,-41.3,169.3,-3.73,-1.18,36.814156,-119.74779,247.52,336.7117390288622,3.98,25.806452,184.04,16 / 16,27694,2015-10-30 10:30:03:074
-0.0718,1.4401,9.1207,0.1492,0.8548,9.7682,0.2358,0.0623,0.0073,-6.3,-29.6,-41.3,168.46,-5.0,-0.88,36.814156,-119.74779,247.52,336.7117390288622,3.98,25.806452,184.04,16 / 16,27795,2015-10-30 10:30:03:175
-0.7697,0.5734,11.2707,0.1583,0.989,9.7554,0.171,-0.0916,-0.215,-6.3,-29.7,-41.3,168.27,-5.69,-0.9,36.814156,-119.74779,247.52,336.7117390288622,3.98,25.806452,184.04,16 / 16,27898,2015-10-30 10:30:03:278
1.1049,0.1939,12.2439,0.0838,0.8521,9.7692,-0.4093,-0.1038,-0.2101,-6.1,-30.2,-41.3,167.97,-6.06,-0.79,36.814156,-119.74779,247.52,336.7117390288622,3.98,25.806452,184.04,16 / 16,27999,2015-10-30 10:30:03:379
0.9876,0.8176,6.6607,-0.0922,0.8639,9.7681,0.3189,-0.2016,0.3604,-5.5,-30.2,-41.3,168.54,-4.56,0.56,36.814156,-119.74779,247.52,336.7117390288622,3.98,25.806452,184.04,16 / 16,28102,2015-10-30 10:30:03:482
-0.9301,0.4118,8.6802,0.0522,0.613,9.7873,-0.0562,-0.0403,-0.0929,-5.2,-29.8,-41.6,170.08,-3.58,-0.31,36.814156,-119.74779,247.52,336.7117390288622,3.98,25.806452,184.04,16 / 16,28204,2015-10-30 10:30:03:584
-0.4417,1.1588,8.4563,0.1102,0.5971,9.7878,-0.0122,-0.0733,-0.0342,-4.9,-29.3,-41.9,170.05,-3.57,-0.52,36.814156,-119.74779,247.52,336.7117390288622,3.98,25.806452,184.04,16 / 16,28306,2015-10-30 10:30:03:686
-0.2322,1.008,10.2005,0.0733,0.6037,9.7878,0.0476,0.0562,-0.0244,-4.9,-29.1,-42.2,170.14,-3.44,-0.56,36.814156,-119.74779,247.52,336.7117390288622,3.98,25.806452,184.04,16 / 16,28408,2015-10-30 10:30:03:788
-0.2981,1.3036,9.9862,0.0261,0.8543,9.7693,0.3873,-0.1478,0.3861,-4.7,-29.0,-42.1,169.41,-3.97,-0.18,36.814156,-119.74779,247.52,336.7117390288622,3.98,25.806452,184.04,16 / 16,28510,2015-10-30 10:30:03:890
-2.1081,-0.589,10.6207,0.0829,0.7433,9.7781,-0.6292,-0.0709,-0.1197,-5.1,-29.4,-41.9,170.98,-4.65,-1.3,36.814156,-119.74779,247.52,336.7117390288622,3.98,25.806452,184.04,16 / 16,28611,2015-10-30 10:30:03:991
0.4178,1.0068,8.6024,0.3232,0.9151,9.7585,-0.0599,-0.2834,0.2969,-5.5,-29.7,-41.7,171.2,-5.48,-1.36,36.814156,-119.74779,247.52,336.7117390288622,3.98,25.806452,184.04,16 / 16,28713,2015-10-30 10:30:04:093
-0.3292,1.0199,9.0776,0.1804,0.6799,9.7814,-0.0086,0.0,0.011,-6.5,-29.6,-42.1,169.05,-3.98,-1.06,36.814156,-119.74779,247.52,336.7117390288622,3.98,25.806452,184.04,16 / 16,28815,2015-10-30 10:30:04:195
-0.395,1.4664,8.7819,0.0647,0.7765,9.7756,0.1356,0.088,-0.1295,-6.9,-29.3,-42.3,165.49,-4.32,-0.46,36.814156,-119.74779,247.52,336.7117390288622,3.98,25.806452,184.04,16 / 16,28917,2015-10-30 10:30:04:297
-0.8954,0.8871,11.7196,0.1123,0.9267,9.7621,0.1478,-0.2309,-0.2199,-6.9,-29.1,-42.7,164.92,-5.1,-0.33,36.814156,-119.74779,247.52,336.7117390288622,3.98,25.806452,184.04,16 / 16,29020,2015-10-30 10:30:04:400
1.4772,0.0275,11.9866,0.2169,0.8743,9.7652,-0.4178,-0.3653,-0.0855,-6.5,-29.4,-42.5,167.54,-5.89,-0.79,36.814156,-119.74779,247.52,336.7117390288622,3.98,25.806452,184.04,16 / 16,29122,2015-10-30 10:30:04:502
1.2953,0.929,7.9045,0.0448,0.8661,9.7682,0.2505,-0.4679,0.303,-6.0,-29.7,-42.6,167.46,-5.07,-0.26,36.814156,-119.74779,247.52,336.7117390288622,3.98,25.806452,184.04,16 / 16,29223,2015-10-30 10:30:04:603
-0.8499,0.0898,8.6742,0.0713,0.7397,9.7785,-0.3176,0.2724,-0.4313,-5.9,-29.7,-42.8,169.31,-5.04,-1.43,36.814156,-119.74779,247.52,336.7117390288622,3.98,25.806452,184.04,16 / 16,29325,2015-10-30 10:30:04:705
-0.1544,1.2977,8.5389,0.0327,0.6603,9.7843,-0.1307,0.0049,-0.055,-5.4,-29.5,-43.4,169.39,-4.08,-0.2,36.814156,-119.74779,247.52,336.7117390288622,3.98,25.806452,184.04,16 / 16,29427,2015-10-30 10:30:04:807
-0.4776,1.0762,9.7683,-0.0203,0.6409,9.7857,0.1723,0.0721,0.0696,-5.3,-29.4,-43.7,169.36,-3.64,-0.11,36.814156,-119.74779,247.52,336.7117390288622,3.98,25.806452,184.04,16 / 16,29530,2015-10-30 10:30:04:910
-0.2753,1.0618,9.6642,-0.0647,0.8967,9.7654,0.3983,0.0489,0.3372,-4.8,-29.3,-43.5,168.04,-5.25,0.38,36.814156,-119.74779,247.52,336.7117390288622,3.98,25.806452,184.04,16 / 16,29631,2015-10-30 10:30:05:011
-1.731,-0.668,11.1127,0.1365,1.0492,9.7494,-0.1881,-0.1112,-0.1808,-5.0,-30.0,-43.0,170.11,-6.14,-0.8,36.814156,-119.74779,247.52,336.7117390288622,3.98,25.806452,184.04,16 / 16,29733,2015-10-30 10:30:05:113
0.3484,0.9038,10.0341,0.3667,1.066,9.7416,-0.1674,-0.0635,0.0611,-5.6,-30.4,-42.7,170.12,-6.24,-2.16,36.814156,-119.74779,247.52,336.7117390288622,3.98,25.806452,184.04,16 / 16,29835,2015-10-30 10:30:05:215
-0.8595,0.4776,8.1032,0.243,0.9719,9.7553,0.0244,0.2162,-0.1332,-6.0,-30.5,-42.5,169.43,-5.64,-1.64,36.814156,-119.74779,247.52,336.7117390288622,3.98,25.806452,184.04,16 / 16,29937,2015-10-30 10:30:05:317
-0.3448,1.3862,8.4839,0.1705,1.1298,9.7399,0.1772,0.1246,-0.1038,-6.5,-30.4,-42.8,168.42,-6.34,-1.16,36.814156,-119.74779,247.52,336.7117390288622,3.98,25.806452,184.04,16 / 16,30039,2015-10-30 10:30:05:419
-0.243,1.1133,10.7105,0.101,1.3035,9.7191,0.1723,-0.0122,-0.1991,-6.2,-30.6,-42.8,167.48,-7.64,-0.6,36.814156,-119.74779,247.52,336.7117390288622,3.98,25.806452,184.04,16 / 16,30142,2015-10-30 10:30:05:522
0.1018,1.3683,9.1028,0.0539,1.4739,9.6951,-0.2272,-0.518,-0.0623,-5.7,-31.2,-43.0,166.37,-8.36,-0.11,36.814156,-119.74779,247.52,336.7117390288622,3.98,25.806452,184.04,16 / 16,30244,2015-10-30 10:30:05:624
-1.069,0.0299,8.8502,0.0634,1.1227,9.742,-0.3812,0.4398,-0.6426,-5.1,-31.6,-43.1,170.03,-6.57,-0.37,36.814156,-119.74779,247.52,336.7117390288622,3.98,25.806452,184.04,16 / 16,30345,2015-10-30 10:30:05:725
1.4066,1.1372,10.969,0.2694,1.2371,9.7246,-0.2712,-0.0782,-0.5498,-4.8,-31.9,-43.2,170.79,-7.78,-1.07,36.814156,-119.74779,247.52,336.7117390288622,3.98,25.806452,184.04,16 / 16,30448,2015-10-30 10:30:05:828
0.1915,1.4006,8.5844,0.1634,1.2402,9.7265,0.1319,-0.1161,-0.2395,-4.3,-31.7,-43.6,172.61,-6.97,-0.74,36.814156,-119.74779,247.52,336.7117390288622,3.98,25.806452,184.04,16 / 16,30550,2015-10-30 10:30:05:930
-0.3424,0.99,10.5512,0.1742,1.1814,9.7337,-0.1637,-0.0843,-0.259,-3.8,-31.8,-43.9,173.2,-7.09,-1.12,36.814156,-119.74779,247.52,336.7117390288622,3.98,25.806452,184.04,16 / 16,30651,2015-10-30 10:30:06:031
-0.4046,1.2139,10.0844,0.0928,1.3904,9.7071,0.27,-0.1723,0.1857,-3.0,-31.9,-44.0,173.86,-7.54,-0.27,36.814156,-119.74779,247.52,336.7117390288622,3.98,25.806452,184.04,16 / 16,30753,2015-10-30 10:30:06:133
-0.7793,-0.2155,10.9212,0.2944,1.431,9.6972,-0.2309,-0.2101,-0.0452,-3.2,-32.4,-43.7,175.58,-8.77,-1.4,36.814156,-119.74779,247.52,336.7117390288622,3.98,25.806452,184.04,16 / 16,30855,2015-10-30 10:30:06:235
0.8511,0.2658,9.5277,0.449,1.4596,9.687,-0.0501,-0.2773,0.1649,-3.5,-32.7,-43.4,176.83,-8.36,-2.05,36.814156,-119.74779,247.52,336.7117390288622,3.98,25.806452,184.04,16 / 16,30958,2015-10-30 10:30:06:338
-0.4094,0.0886,8.6694,0.3682,1.3007,9.713,-0.1735,0.4325,-0.358,-4.7,-33.0,-44.0,172.93,-7.62,-2.17,36.814156,-119.74779,247.52,336.7117390288622,3.98,25.806452,184.04,16 / 16,31059,2015-10-30 10:30:06:439
0.006,0.328,10.2879,0.202,1.2069,9.73,-0.121,0.1564,-0.4777,-4.9,-32.9,-44.3,172.01,-7.3,-1.55,36.814156,-119.74779,247.52,336.7117390288622,3.98,25.806452,184.04,16 / 16,31162,2015-10-30 10:30:06:542
0.2622,0.8667,9.1877,0.1192,1.2322,9.7282,-0.0122,-0.0073,-0.3567,-4.3,-32.8,-44.6,172.77,-7.14,-0.7,36.814156,-119.74779,247.52,336.7117390288622,3.98,25.806452,184.04,16 / 16,31263,2015-10-30 10:30:06:643
0.3938,0.9708,9.5816,0.0454,1.1321,9.741,-0.1564,0.0684,-0.3115,-3.4,-32.8,-44.4,174.33,-6.92,-0.36,36.814156,-119.74779,247.52,336.7117390288622,3.98,25.806452,184.04,16 / 16,31365,2015-10-30 10:30:06:745
1.8447,1.409,9.6486,0.03,1.0853,9.7464,0.0855,-0.1002,-0.3702,-2.0,-32.8,-44.6,175.79,-6.26,0.07,36.814156,-119.74779,247.52,336.7117390288622,3.98,25.806452,184.04,16 / 16,31467,2015-10-30 10:30:06:847
1.5862,0.747,9.6055,-0.0519,1.0675,9.7482,0.0464,-0.0147,-1.2181,-1.0,-32.7,-44.7,177.81,-6.32,0.08,36.814156,-119.74779,247.52,336.7117390288622,3.98,25.806452,184.04,16 / 16,31569,2015-10-30 10:30:06:949
0.9421,0.7135,9.4667,0.1401,1.1705,9.7355,0.1686,-0.4716,-1.6188,1.2,-32.5,-44.6,183.57,-6.85,-0.82,36.814156,-119.74779,247.52,336.7117390288622,3.98,25.806452,184.04,16 / 16,31671,2015-10-30 10:30:07:051
0.067,0.1293,11.1007,0.3609,1.0708,9.7413,-0.2578,-0.4166,-2.2345,4.8,-31.6,-44.3,193.58,-6.48,-1.94,36.814156,-119.74779,247.52,336.7117390288622,3.98,25.806452,184.04,16 / 16,31773,2015-10-30 10:30:07:153
-1.0163,-0.2454,10.0952,0.4567,1.0266,9.7421,-0.1173,-0.3152,-2.2846,11.6,-27.0,-44.8,212.4,-6.01,-2.68,36.814156,-119.74779,247.52,336.7117390288622,3.98,25.806452,184.04,16 / 16,31875,2015-10-30 10:30:07:255
-1.9058,-0.1113,8.6778,0.5001,1.1003,9.7319,0.0195,-0.4606,-1.7923,13.9,-24.0,-45.9,220.44,-6.12,-2.79,36.814156,-119.74779,247.52,336.7117390288622,3.98,25.806452,184.04,16 / 16,31978,2015-10-30 10:30:07:358
-2.1644,-0.2921,9.0058,0.3653,0.9613,9.7526,-0.3971,0.3506,-1.7471,17.7,-19.7,-46.9,232.11,-5.63,-2.15,36.814156,-119.74779,247.52,336.7117390288622,3.98,25.806452,184.04,16 / 16,32080,2015-10-30 10:30:07:460
-1.4317,0.5399,8.7233,0.0541,0.784,9.7751,-0.2676,0.0269,-0.7135,19.4,-17.1,-45.6,236.27,-4.96,-0.54,36.814156,-119.74779,247.52,336.7117390288622,3.98,25.806452,184.04,16 / 16,32182,2015-10-30 10:30:07:562
-0.2286,0.8068,10.1909,0.0345,0.5578,9.7907,-0.0672,-0.369,-0.0452,20.3,-14.8,-46.4,238.62,-3.4,-0.1,36.814156,-119.74779,247.52,336.7117390288622,3.98,25.806452,184.04,16 / 16,32284,2015-10-30 10:30:07:664
-0.6943,0.8523,8.4851,0.1955,0.5343,9.7901,0.0623,-0.0183,-0.0293,21.0,-13.3,-46.3,244.4,-3.12,-1.14,36.814156,-119.74779,247.52,336.7117390288622,3.98,25.806452,184.04,16 / 16,32385,2015-10-30 10:30:07:765
-0.2394,1.0283,9.7432,0.3416,0.3971,9.7926,-0.259,0.0086,-0.3054,20.8,-12.3,-46.4,247.06,-3.09,-1.95,36.814156,-119.74779,247.52,336.7117390288622,3.98,25.806452,184.04,16 / 16,32487,2015-10-30 10:30:07:867
-0.2622,1.2282,9.7779,0.2876,0.2837,9.7983,-0.0281,-0.0012,-0.2309,20.3,-11.4,-46.7,245.99,-1.74,-1.88,36.814156,-119.74779,247.52,336.7117390288622,3.98,25.806452,184.04,16 / 16,32590,2015-10-30 10:30:07:970
-0.1245,1.6688,9.7432,0.24,0.2271,9.8011,-0.1808,0.0684,-0.2834,20.3,-10.7,-46.5,245.42,-1.57,-1.64,36.814156,-119.74779,247.52,336.7117390288622,3.98,25.806452,184.04,16 / 16,32691,2015-10-30 10:30:08:071
-0.5626,1.9142,9.2644,0.1433,0.1446,9.8049,-0.0916,0.1087,-0.1332,20.6,-9.1,-46.7,248.77,-0.71,-0.84,36.814156,-119.74779,247.52,336.7117390288622,3.98,25.806452,184.04,16 / 16,32794,2015-10-30 10:30:08:174
-0.3843,1.5933,9.6295,0.0495,0.3858,9.7989,0.1197,0.0318,-0.022,21.0,-8.2,-46.9,252.27,-1.4,-0.54,36.814156,-119.74779,247.52,336.7117390288622,3.98,25.806452,184.04,16 / 16,32895,2015-10-30 10:30:08:275
-0.577,0.7027,12.5049,0.1002,0.5544,9.7905,0.3164,-0.1063,0.2199,21.4,-7.4,-47.1,257.64,-2.85,-0.32,36.814156,-119.74779,247.52,336.7117390288622,3.98,25.806452,184.04,16 / 16,32997,2015-10-30 10:30:08:377
1.8806,1.4054,10.003,0.1928,0.9261,9.7609,0.5877,-0.2932,0.6964,21.5,-8.1,-47.0,261.15,-5.42,-1.13,36.814156,-119.74779,247.52,336.7117390288622,3.98,25.806452,184.04,16 / 16,33099,2015-10-30 10:30:08:479
0.48,0.8859,8.3797,0.3109,1.093,9.7406,0.518,-0.3409,0.2908,21.4,-9.3,-47.3,259.34,-5.85,-1.84,36.814156,-119.74779,247.52,336.7117390288622,3.98,25.806452,184.04,16 / 16,33201,2015-10-30 10:30:08:581
-1.5179,0.1413,7.9308,0.2419,0.9558,9.757,-0.3958,0.6231,-0.3787,21.0,-11.2,-47.2,256.81,-6.8,-3.04,36.814156,-119.74779,247.52,336.7117390288622,3.98,25.806452,184.04,16 / 16,33303,2015-10-30 10:30:08:683
-1.172,0.9876,9.0118,-0.0176,0.7049,9.7813,-0.2211,0.0623,-0.0904,21.4,-11.2,-47.6,250.99,-4.39,-0.21,36.814156,-119.74779,247.52,336.7117390288622,3.98,25.806452,184.04,16 / 16,33406,2015-10-30 10:30:08:786
-0.4956,1.6795,9.0477,-0.1837,0.8073,9.7716,0.0269,0.077,0.0379,22.2,-10.4,-47.5,253.81,-4.59,0.87,36.814156,-119.74779,247.52,336.7117390288622,3.98,25.806452,184.04,16 / 16,33507,2015-10-30 10:30:08:887
-1.391,0.4118,12.3888,-0.1195,0.9073,9.7639,0.3433,0.0318,-0.0049,23.0,-9.7,-47.6,255.15,-4.85,1.02,36.814156,-119.74779,247.52,336.7117390288622,3.98,25.806452,184.04,16 / 16,33609,2015-10-30 10:30:08:989
1.1648,-0.3172,11.4682,-0.0079,1.0794,9.7471,-0.0183,-0.2981,-0.033,23.4,-9.9,-47.7,258.69,-6.44,0.4,36.814156,-119.74779,247.52,336.7117390288622,3.98,25.806452,184.04,16 / 16,33711,2015-10-30 10:30:09:091
0.9266,1.1875,6.0214,-0.1335,1.1191,9.7417,0.6817,-0.0293,0.3958,23.5,-10.3,-47.6,256.95,-5.47,1.19,36.814156,-119.74779,247.52,336.7117390288622,3.98,25.806452,184.04,16 / 16,33814,2015-10-30 10:30:09:194
-1.4389,0.3699,8.3342,-0.0576,0.8905,9.766,-0.2028,0.2101,-0.4838,23.5,-10.6,-47.5,254.29,-5.21,0.34,36.814156,-119.74779,247.52,336.7117390288622,3.98,25.806452,184.04,16 / 16,33915,2015-10-30 10:30:09:295
-0.3687,1.4174,8.5329,-0.1109,0.9047,9.7642,0.1161,0.0623,-0.1136,23.7,-10.3,-47.2,256.29,-5.13,0.57,36.814156,-119.74779,247.52,336.7117390288622,3.98,25.806452,184.04,16 / 16,34018,2015-10-30 10:30:09:398
-1.4281,0.5327,11.8333,-0.1637,1.0029,9.7539,0.0721,0.0831,-0.1576,23.9,-10.1,-47.3,257.6,-5.87,0.96,36.814156,-119.74779,247.52,336.7117390288622,3.98,25.806452,184.04,16 / 16,34119,2015-10-30 10:30:09:499
-0.753,1.3479,8.7053,-0.3052,1.5433,9.6796,0.5437,-0.1478,0.3567,24.4,-10.5,-47.0,261.95,-8.11,2.1,36.814156,-119.74779,247.52,336.7117390288622,3.98,25.806452,184.04,16 / 16,34221,2015-10-30 10:30:09:601
-2.2458,0.2119,9.1997,-0.1763,1.3271,9.7148,0.0733,-0.3824,0.3103,24.7,-11.9,-47.1,257.24,-7.78,1.04,36.814156,-119.74779,247.52,336.7117390288622,3.98,25.806452,184.04,16 / 16,34323,2015-10-30 10:30:09:703
-0.4525,0.905,8.6287,0.1489,1.1241,9.7409,-0.2639,-0.2053,0.2114,24.5,-12.8,-47.2,255.79,-7.86,-0.82,36.814156,-119.74779,247.52,336.7117390288622,3.98,25.806452,184.04,16 / 16,34425,2015-10-30 10:30:09:805
-0.7961,1.306,8.8526,0.1396,0.9261,9.7618,-0.0342,0.0525,0.2859,23.7,-13.3,-47.1,251.07,-5.47,-0.95,36.814156,-119.74779,247.52,336.7117390288622,3.98,25.806452,184.04,16 / 16,34527,2015-10-30 10:30:09:907
-0.4465,1.4964,9.6175,0.0845,1.0937,9.7451,0.1564,0.2236,0.0024,23.2,-13.4,-47.4,251.33,-6.11,-0.63,36.814156,-119.74779,247.52,336.7117390288622,3.98,25.806452,184.04,16 / 16,34630,2015-10-30 10:30:10:010
-0.2741,0.9002,11.4874,-0.0858,1.3327,9.7153,0.2419,0.0538,-0.099,23.3,-14.1,-46.9,251.26,-7.54,0.39,36.814156,-119.74779,247.52,336.7117390288622,3.98,25.806452,184.04,16 / 16,34731,2015-10-30 10:30:10:111
0.8667,0.1293,9.7815,0.0014,1.4441,9.6997,0.0049,-0.2798,-0.0354,23.5,-14.9,-46.5,251.37,-8.57,0.53,36.814156,-119.74779,247.52,336.7117390288622,3.98,25.806452,184.04,16 / 16,34833,2015-10-30 10:30:10:213
0.1544,0.6476,8.6921,0.0483,1.2,9.7328,0.182,-0.2431,0.0281,23.7,-15.2,-45.7,248.62,-6.84,-0.06,36.814156,-119.74779,247.52,336.7117390288622,3.98,25.806452,184.04,16 / 16,34935,2015-10-30 10:30:10:315
-0.9122,0.7649,8.4563,-0.0638,1.0355,9.7516,0.1051,0.237,-0.0428,23.4,-14.6,-45.6,246.58,-6.11,-0.18,36.814156,-119.74779,247.52,336.7117390288622,3.98,25.806452,184.04,16 / 16,35037,2015-10-30 10:30:10:417
-0.1796,1.312,8.6993,-0.1321,1.1578,9.7372,0.1381,0.0403,-0.0476,23.5,-13.7,-45.4,249.92,-6.78,0.78,36.814156,-119.74779,247.52,336.7117390288622,3.98,25.806452,184.04,16 / 16,35139,2015-10-30 10:30:10:519
-0.4561,1.057,9.6223,-0.2213,1.2041,9.7299,0.0476,0.1478,-0.1442,23.7,-13.4,-45.0,252.34,-6.97,1.0,36.814156,-119.74779,247.52,336.7117390288622,3.98,25.806452,184.04,16 / 16,35241,2015-10-30 10:30:10:621
-0.0144,1.1528,10.6614,-0.0481,1.3272,9.7163,0.0073,-0.259,0.1148,24.2,-13.4,-44.4,253.14,-7.55,0.9,36.814156,-119.74779,247.52,336.7117390288622,3.98,25.806452,184.04,16 / 16,35343,2015-10-30 10:30:10:723
-1.5574,-0.2538,9.7624,0.074,0.9943,9.7558,-0.4972,-0.0086,-0.1075,23.8,-13.3,-44.3,251.2,-6.05,-0.56,36.814156,-119.74779,247.52,336.7117390288622,3.98,25.806452,184.04,16 / 16,35445,2015-10-30 10:30:10:825
-0.0239,0.6105,9.8342,0.2704,0.8367,9.7672,-0.4325,-0.1344,0.0024,23.3,-13.3,-44.0,250.61,-6.06,-0.84,36.814156,-119.74779,247.52,336.7117390288622,3.98,25.806452,184.04,16 / 16,35547,2015-10-30 10:30:10:927
-0.328,1.0439,8.7484,0.1318,0.7354,9.7781,0.0684,0.1344,0.1332,22.6,-12.8,-44.5,247.54,-4.22,-0.77,36.814156,-119.74779,247.52,336.7117390288622,3.98,25.806452,184.04,16 / 16,35650,2015-10-30 10:30:11:030
-0.4992,1.2378,8.5808,-0.057,0.7733,9.7759,0.0403,0.2004,0.0342,22.6,-12.6,-44.4,247.41,-4.43,0.02,36.814156,-119.74779,247.52,336.7117390288622,3.98,25.806452,184.04,16 / 16,35752,2015-10-30 10:30:11:132
-1.0139,0.6249,11.3401,-0.1415,0.9093,9.7634,0.1246,0.0354,0.0232,23.1,-12.4,-44.3,250.31,-5.05,0.64,36.814156,-119.74779,247.52,336.7117390288622,3.98,25.806452,184.04,16 / 16,35853,2015-10-30 10:30:11:233
0.6273,-0.1987,12.1422,-0.0815,0.8545,9.769,-0.4508,0.2126,-0.1087,23.4,-12.5,-43.7,251.49,-5.73,0.69,36.814156,-119.74779,247.52,336.7117390288622,3.98,25.806452,184.04,16 / 16,35956,2015-10-30 10:30:11:336
0.5938,0.4776,9.0525,0.0414,0.704,9.7813,-0.2529,-0.3018,0.0024,23.5,-12.4,-43.7,249.82,-4.2,0.3,36.814156,-119.74779,247.52,336.7117390288622,3.98,25.806452,184.04,16 / 16,36057,2015-10-30 10:30:11:437
-0.7219,0.0742,8.7005,0.1461,0.5238,9.7916,-0.0843,-0.0464,-0.0757,23.3,-12.2,-43.8,248.0,-3.19,-0.86,36.814156,-119.74779,247.52,336.7117390288622,3.98,25.806452,184.04,16 / 16,36159,2015-10-30 10:30:11:539
-0.3603,0.6943,8.6598,0.1108,0.5426,9.791,0.0757,0.0452,0.0709,22.9,-11.5,-43.9,249.98,-3.17,-0.65,36.814156,-119.74779,247.52,336.7117390288622,3.98,25.806452,184.04,16 / 16,36261,2015-10-30 10:30:11:641
-0.9301,0.0611,10.6207,0.0012,0.5622,9.7905,0.1613,0.1503,0.2407,22.7,-11.3,-43.6,250.0,-3.31,-0.26,36.814156,-119.74779,247.52,336.7117390288622,3.98,25.806452,184.04,16 / 16,36363,2015-10-30 10:30:11:743
0.1413,0.5148,9.7504,-0.0875,0.8924,9.7656,0.4472,0.2382,0.5034,22.8,-11.7,-43.2,249.91,-4.96,0.73,36.814156,-119.74779,247.52,336.7117390288622,3.98,25.806452,184.04,16 / 16,36465,2015-10-30 10:30:11:845
-1.9932,-0.8116,11.3377,-0.0429,0.7165,9.7803,0.0232,-0.0513,0.259,22.9,-12.2,-43.0,249.63,-4.66,0.31,36.814156,-119.74779,247.52,336.7117390288622,3.98,25.806452,184.04,16 / 16,36567,2015-10-30 10:30:11:947
0.0491,0.6201,8.5904,0.165,0.747,9.7768,-0.2969,0.0464,-0.1148,22.8,-13.4,-42.9,248.14,-4.69,-0.8,36.814156,-119.74779,247.52,336.7117390288622,3.98,25.806452,184.04,16 / 16,36669,2015-10-30 10:30:12:049
-0.8847,0.5315,9.584,0.1449,0.5165,9.792,-0.2248,-0.0538,-0.2309,22.4,-13.5,-43.0,244.63,-3.02,-0.85,36.814156,-119.74779,247.52,336.7117390288622,3.98,25.806452,184.04,16 / 16,36771,2015-10-30 10:30:12:151
-0.7614,0.5183,9.5229,0.0833,0.6027,9.7878,0.0916,0.0611,-0.204,22.1,-13.3,-43.4,245.18,-3.52,-0.49,36.814156,-119.74779,247.52,336.7117390288622,3.98,25.806452,184.04,16 / 16,36873,2015-10-30 10:30:12:253
-0.4369,0.3352,9.979,0.0185,0.8344,9.7711,0.3445,-0.0037,-0.193,22.1,-12.9,-43.2,246.32,-4.36,-0.15,36.814095,-119.74785,248.88,336.7117390288622,3.33,19.35484,272.63,16 / 16,36976,2015-10-30 10:30:12:356
1.3551,-0.0682,10.2783,0.0649,0.9123,9.7639,-0.5547,-0.0061,-0.5889,22.3,-13.1,-42.7,249.07,-5.94,-0.27,36.814095,-119.74785,248.88,336.7117390288622,3.33,19.35484,272.63,16 / 16,37077,2015-10-30 10:30:12:457
0.8619,0.4836,9.4691,-0.0207,0.7045,9.7813,0.066,0.1038,-0.1173,22.6,-12.7,-42.5,246.53,-4.12,0.12,36.814095,-119.74785,248.88,336.71549362204377,3.33,19.35484,272.63,16 / 16,37180,2015-10-30 10:30:12:560
-0.322,0.3579,7.7704,0.0534,0.8121,9.7728,0.1014,-0.2615,0.0147,22.7,-12.4,-42.8,249.52,-4.5,0.0,36.814095,-119.74785,248.88,336.71549362204377,3.33,19.35484,272.63,16 / 16,37282,2015-10-30 10:30:12:662
-0.1688,0.2861,8.8873,0.0595,0.7798,9.7754,0.1491,-0.0293,0.0733,22.7,-11.7,-43.1,249.89,-4.53,-0.61,36.814095,-119.74785,248.88,336.71549362204377,3.33,19.35484,272.63,16 / 16,37383,2015-10-30 10:30:12:763
-0.2849,0.3843,10.1083,0.0389,0.9108,9.7642,0.1613,0.1026,0.1075,22.7,-11.9,-42.9,251.03,-5.33,-0.23,36.814095,-119.74785,248.88,336.71549362204377,3.33,19.35484,272.63,16 / 16,37485,2015-10-30 10:30:12:865
-0.5279,-0.1329,9.7803,-0.1537,1.1218,9.7411,0.2676,0.2285,0.2834,23.0,-12.4,-42.6,252.1,-6.16,0.57,36.814095,-119.74785,248.88,336.71549362204377,3.33,19.35484,272.63,16 / 16,37588,2015-10-30 10:30:12:968
-1.658,-0.3567,10.3394,-0.2318,1.0907,9.7431,-0.0208,0.0806,0.2957,23.3,-13.4,-42.1,250.16,-6.64,1.1,36.814095,-119.74785,248.88,336.71549362204377,3.33,19.35484,272.63,16 / 16,37690,2015-10-30 10:30:13:070
0.0084,0.0826,8.9483,-0.1814,1.1816,9.7335,0.1784,-0.0843,0.4117,23.5,-14.3,-41.7,248.5,-6.54,1.35,36.814095,-119.74785,248.88,336.71549362204377,3.33,19.35484,272.63,16 / 16,37792,2015-10-30 10:30:13:172
-0.3304,0.2035,8.418,-0.3079,1.057,9.7447,0.0391,0.1515,0.0354,23.5,-15.3,-41.5,245.42,-6.17,1.64,36.814095,-119.74785,248.88,336.71549362204377,3.33,19.35484,272.63,16 / 16,37893,2015-10-30 10:30:13:273
-0.2933,-0.0299,9.2153,-0.3418,0.9102,9.7583,0.0428,-0.0929,-0.1063,23.4,-15.6,-41.1,240.78,-5.33,2.01,36.814095,-119.74785,248.88,336.71549362204377,3.33,19.35484,272.63,16 / 16,37996,2015-10-30 10:30:13:376
-1.2797,-0.4992,10.7739,-0.2877,0.6867,9.7783,-0.1222,0.2334,-0.1747,23.5,-15.1,-41.4,243.38,-4.71,1.37,36.814095,-119.74785,248.88,336.71549362204377,3.33,19.35484,272.63,16 / 16,38097,2015-10-30 10:30:13:477
-0.2358,0.2753,10.0664,-0.3469,0.6112,9.7814,0.0354,-0.1393,0.1417,23.7,-14.1,-41.5,243.09,-3.63,2.35,36.814095,-119.74785,248.88,336.71549362204377,3.33,19.35484,272.63,16 / 16,38199,2015-10-30 10:30:13:579
-0.3986,0.3256,9.7037,-0.3101,0.5443,9.7866,-0.0403,-0.0305,-0.0367,23.7,-13.5,-42.0,244.98,-3.26,1.9,36.814095,-119.74785,248.88,336.71549362204377,3.33,19.35484,272.63,16 / 16,38302,2015-10-30 10:30:13:682
-0.3089,0.4669,9.4104,-0.3109,0.4907,9.7894,-0.0367,-0.033,0.0086,23.8,-13.1,-42.3,244.45,-2.94,1.92,36.814095,-119.74785,248.88,336.71549362204377,3.33,19.35484,272.63,16 / 16,38403,2015-10-30 10:30:13:783
-0.6165,0.5375,9.8174,-0.2763,0.4379,9.793,-0.0696,-0.0476,-0.0232,23.6,-13.0,-42.6,244.22,-2.65,1.7,36.814095,-119.74785,248.88,336.71549362204377,3.33,19.35484,272.63,16 / 16,38505,2015-10-30 10:30:13:885
-0.5207,0.5578,9.414,-0.2603,0.4097,9.7946,-0.0037,-0.0037,-0.0513,23.6,-12.7,-42.7,243.98,-2.39,1.48,36.814095,-119.74785,248.88,336.71549362204377,3.33,19.35484,272.63,16 / 16,38607,2015-10-30 10:30:13:987
-0.4884,0.6057,9.2213,-0.2377,0.3434,9.7978,-0.1075,-0.0757,-0.1002,23.4,-12.5,-42.4,244.62,-2.15,1.47,36.814095,-119.74785,248.88,336.71549362204377,3.33,19.35484,272.63,16 / 16,38709,2015-10-30 10:30:14:089
-0.5782,-0.1113,10.9499,-0.227,0.2258,9.8014,-0.1319,-0.11,-0.0574,23.2,-12.1,-42.7,243.96,-1.57,1.18,36.814095,-119.74785,248.88,336.71549362204377,3.33,19.35484,272.63,16 / 16,38811,2015-10-30 10:30:14:191
-0.6488,0.3615,9.4355,-0.2032,0.2372,9.8017,-0.0305,-0.0965,0.0122,23.1,-11.7,-42.9,243.66,-1.39,1.19,36.814095,-119.74785,248.88,336.71549362204377,3.33,19.35484,272.63,16 / 16,38913,2015-10-30 10:30:14:293
-0.4645,0.5578,9.487,-0.2767,0.1433,9.8017,0.0941,0.0501,0.0122,23.1,-11.3,-43.1,244.56,-0.84,1.62,36.814095,-119.74785,248.88,336.71549362204377,3.33,19.35484,272.63,16 / 16,39015,2015-10-30 10:30:14:395
-0.5734,0.4034,9.7205,-0.3283,0.2006,9.7991,0.0208,-0.044,0.0171,23.3,-11.3,-42.6,244.88,-1.17,1.92,36.814095,-119.74785,248.88,336.71549362204377,3.33,19.35484,272.63,16 / 16,39117,2015-10-30 10:30:14:497
-0.5507,0.2969,9.6941,-0.3208,0.2073,9.7992,-0.0049,0.0086,-0.0183,23.4,-11.2,-42.6,245.01,-1.21,1.84,36.814095,-119.74785,248.88,336.71549362204377,3.33,19.35484,272.63,16 / 16,39220,2015-10-30 10:30:14:600
-0.7027,0.3843,9.742,-0.3824,0.2365,9.7963,-0.0024,0.0342,-0.0257,23.6,-11.2,-42.4,246.02,-1.38,2.15,36.814095,-119.74785,248.88,336.71549362204377,3.33,19.35484,272.63,16 / 16,39321,2015-10-30 10:30:14:701
-0.6464,0.3903,9.8007,-0.4098,0.2087,9.7959,-0.0195,0.0232,-0.022,23.6,-11.2,-42.4,245.7,-1.27,2.37,36.814095,-119.74785,248.88,336.71549362204377,3.33,19.35484,272.63,16 / 16,39423,2015-10-30 10:30:14:803
-0.6823,0.3867,9.56,-0.4403,0.2095,9.7945,0.0049,0.0232,0.0049,23.7,-11.0,-42.5,245.48,-1.22,2.57,36.814095,-119.74785,248.88,336.71549362204377,3.33,19.35484,272.63,16 / 16,39525,2015-10-30 10:30:14:905
-0.6165,0.3699,9.6079,-0.4675,0.2233,9.793,-0.0037,-0.0098,0.0122,23.7,-11.0,-42.5,245.45,-1.27,2.72,36.814095,-119.74785,248.88,336.71549362204377,3.33,19.35484,272.63,16 / 16,39627,2015-10-30 10:30:15:007
-0.6644,0.334,9.6235,-0.4726,0.2011,9.7932,-0.0367,-0.044,-0.0037,23.8,-10.9,-42.2,245.32,-1.21,2.76,36.814095,-119.74785,248.88,336.71549362204377,3.33,19.35484,272.63,16 / 16,39729,2015-10-30 10:30:15:109
-0.5758,0.3639,9.6977,-0.4511,0.1712,9.7948,-0.0305,-0.0305,0.0049,23.7,-10.7,-42.0,245.07,-1.0,2.64,36.814095,-119.74785,248.88,336.71549362204377,3.33,19.35484,272.63,16 / 16,39832,2015-10-30 10:30:15:212
-0.5399,0.3364,9.7588,-0.4182,0.1381,9.7968,0.0049,-0.0195,0.0098,23.5,-10.5,-42.1,247.01,-0.79,2.46,36.814095,-119.74785,248.88,336.71549362204377,3.33,19.35484,272.63,16 / 16,39933,2015-10-30 10:30:15:313
-0.6033,0.3005,9.5756,-0.4266,0.1671,9.7959,0.0354,-0.0049,0.0183,23.3,-10.5,-42.2,246.34,-0.98,2.49,36.814095,-119.74785,248.88,336.71549362204377,3.33,19.35484,272.63,16 / 16,40035,2015-10-30 10:30:15:415
-0.6393,0.2777,9.742,-0.4484,0.1953,9.7944,0.0195,0.0257,0.0,23.3,-10.6,-42.5,244.28,-1.14,2.62,36.814095,-119.74785,248.88,336.71549362204377,3.33,19.35484,272.63,16 / 16,40138,2015-10-30 10:30:15:518
-0.4657,0.334,9.7516,-0.4556,0.2124,9.7938,-0.0024,-0.0012,-0.0159,23.6,-10.9,-42.5,245.44,-1.24,2.66,36.814095,-119.74785,248.88,336.71549362204377,3.33,19.35484,272.63,16 / 16,40239,2015-10-30 10:30:15:619
-0.6572,0.3136,9.8222,-0.4682,0.1993,9.7934,-0.0061,0.0538,-0.0232,23.7,-10.8,-42.5,245.3,-1.17,2.7,36.814095,-119.74785,248.88,336.71549362204377,3.33,19.35484,272.63,16 / 16,40341,2015-10-30 10:30:15:721
-0.911,0.1796,11.7723,-0.4096,0.062,9.7979,-0.0684,0.3335,-0.1002,23.8,-10.6,-42.6,245.11,-0.91,2.36,36.814095,-119.74785,248.88,336.71549362204377,3.33,19.35484,272.63,16 / 16,40443,2015-10-30 10:30:15:823