ACCELEROMETER X (m/s²),ACCELEROMETER Y (m/s²),ACCELEROMETER Z (m/s²),GRAVITY X (m/s²),GRAVITY Y (m/s²),GRAVITY Z (m/s²),GYROSCOPE X (rad/s),GYROSCOPE Y (rad/s),GYROSCOPE Z (rad/s),MAGNETIC FIELD X (μT),MAGNETIC FIELD Y (μT),MAGNETIC FIELD Z (μT),ORIENTATION Z (azimuth °),ORIENTATION X (pitch °),ORIENTATION Y (roll °),LOCATION Latitude : ,LOCATION Longitude : ,LOCATION Altitude ( m),LOCATION Altitude-google ( m),LOCATION Speed ( Kmh),LOCATION Accuracy ( m),LOCATION ORIENTATION (°),Satellites in range,Time since start in ms ,YYYY-MO-DD HH-MI-SS_SSS
-0.2095,0.5674,9.5493,0.0104,0.4179,9.7977,-0.0721,-0.2492,-0.0354,-1.6,19.3,-45.4,6.17,-2.56,0.34,36.814056,-119.74735,260.11,336.86720523644766,0.66,12.903226,,17 / 17,36,2015-10-30 10:12:41:857
-0.0431,0.7997,9.3182,0.3418,0.2732,9.7969,-0.1026,-0.2761,0.0171,-2.4,19.7,-45.2,1.16,-1.6,-2.0,36.814056,-119.74735,260.11,336.86720523644766,0.66,12.903226,,17 / 17,138,2015-10-30 10:12:41:959
0.5626,0.6895,10.1514,0.5392,0.1358,9.7909,-0.2077,-0.1735,0.0916,-3.3,20.1,-45.2,1.89,-1.1,-2.94,36.814056,-119.74735,260.11,336.86720523644766,0.66,12.903226,,17 / 17,239,2015-10-30 10:12:42:060
0.674,0.346,9.7492,0.4992,0.1259,9.7931,0.1625,0.0599,0.0024,-4.2,20.8,-44.7,4.52,-0.74,-2.92,36.814056,-119.74735,260.11,336.86720523644766,0.66,12.903226,,17 / 17,341,2015-10-30 10:12:42:162
0.0192,0.3555,9.6977,0.4529,0.25,9.793,0.16,0.1393,-0.0367,-4.5,21.0,-44.7,4.95,-1.46,-2.65,36.814056,-119.74735,260.11,336.86720523644766,0.66,12.903226,,17 / 17,444,2015-10-30 10:12:42:265
0.4166,0.2514,9.5361,0.2976,0.3315,9.7965,0.0428,0.1539,0.1393,-4.2,20.7,-45.0,6.67,-1.94,-1.74,36.814056,-119.74735,260.11,336.86720523644766,0.66,12.903226,,17 / 17,545,2015-10-30 10:12:42:366
-0.0323,-0.2837,10.3513,0.178,0.1554,9.8038,0.0012,0.16,0.0403,-3.9,20.5,-45.1,7.67,-1.0,-1.36,36.814056,-119.74735,260.11,336.86720523644766,0.66,12.903226,,17 / 17,648,2015-10-30 10:12:42:469
0.3172,-0.0467,9.238,0.2193,0.1988,9.8022,-0.0244,0.0073,-0.0721,-3.3,20.4,-45.0,5.44,-1.16,-1.28,36.814056,-119.74735,260.11,336.86720523644766,0.66,12.903226,,17 / 17,749,2015-10-30 10:12:42:570
0.0419,0.0287,9.9383,0.2258,0.1311,9.8032,-0.0916,-0.0232,-0.0819,-3.1,20.6,-44.6,5.18,-0.89,-1.32,36.814056,-119.74735,260.11,336.86720523644766,0.66,12.903226,,17 / 17,851,2015-10-30 10:12:42:672
0.2526,0.2562,10.0137,0.218,0.079,9.8039,-0.0342,-0.0586,-0.0696,-3.2,20.8,-44.5,5.41,-0.46,-1.27,36.814056,-119.74735,260.11,336.86720523644766,0.66,12.903226,,17 / 17,954,2015-10-30 10:12:42:775
0.0575,0.4693,9.736,0.228,0.1025,9.8035,0.0024,-0.0562,-0.1185,-3.3,21.0,-44.6,5.3,-0.58,-1.29,36.814056,-119.74735,260.11,336.86720523644766,0.66,12.903226,,17 / 17,1056,2015-10-30 10:12:42:877
0.2562,1.0511,9.0214,0.2848,0.1651,9.8011,0.088,-0.077,-0.1002,-3.6,21.2,-44.8,7.05,-0.96,-1.66,36.814056,-119.74735,260.11,336.86720523644766,0.66,12.903226,,17 / 17,1157,2015-10-30 10:12:42:978
-0.1496,1.9046,10.2197,0.3162,0.0678,9.8013,-0.1466,0.0049,-0.0733,-3.9,21.2,-44.7,6.81,-0.4,-1.85,36.814056,-119.74735,260.11,336.86720523644766,0.66,12.903226,,17 / 17,1260,2015-10-30 10:12:43:081
0.2562,1.9345,9.5385,0.3196,0.1189,9.8007,-0.1918,-0.1344,-0.1087,-4.2,21.4,-44.4,6.79,-0.69,-1.87,36.814056,-119.74735,260.11,336.86720523644766,0.66,12.903226,,17 / 17,1361,2015-10-30 10:12:43:182
0.3496,1.9213,9.4631,0.4001,0.0443,9.7984,-0.0147,0.066,-0.1332,-4.6,21.7,-44.3,8.2,-0.26,-2.34,36.814056,-119.74735,260.11,336.86720523644766,0.66,12.903226,,17 / 17,1464,2015-10-30 10:12:43:285
-0.0168,2.1644,9.4451,0.2768,0.3235,9.7974,0.0037,0.0244,-0.0672,-5.0,22.1,-44.1,9.13,-1.38,-1.68,36.814056,-119.74735,260.11,336.86720523644766,0.66,12.903226,,17 / 17,1565,2015-10-30 10:12:43:386
0.5136,1.5371,10.7727,-0.0168,0.4702,9.7954,0.0122,0.4508,0.0244,-5.0,22.1,-44.1,10.09,-2.64,-0.95,36.814056,-119.74735,260.11,336.86720523644766,0.66,12.903226,,17 / 17,1668,2015-10-30 10:12:43:489
-1.7358,0.2478,10.2173,-0.2023,0.7454,9.7762,-0.16,-0.2224,0.3189,-4.3,21.7,-44.0,11.47,-4.22,1.44,36.814056,-119.74735,260.11,336.86720523644766,0.66,12.903226,,17 / 17,1769,2015-10-30 10:12:43:590
0.9864,-0.7937,13.4518,2.0E-4,0.4129,9.798,-0.5009,-0.248,0.5205,-3.6,21.5,-44.2,10.31,-2.53,0.46,36.814056,-119.74735,260.11,336.86720523644766,0.66,12.903226,,17 / 17,1872,2015-10-30 10:12:43:693
-1.0582,0.5339,9.7827,-0.19,0.5144,9.7913,0.0122,0.0709,0.0318,-2.7,21.3,-44.2,9.4,-3.01,1.11,36.814056,-119.74735,260.11,336.86720523644766,0.66,12.903226,,17 / 17,1974,2015-10-30 10:12:43:795
-0.1832,0.5315,8.3785,-0.0156,0.7799,9.7756,0.4203,-0.0794,0.1552,-2.5,21.2,-44.2,5.3,-3.89,0.29,36.814056,-119.74735,260.11,336.86720523644766,0.66,12.903226,,17 / 17,2076,2015-10-30 10:12:43:897
-0.5136,2.2326,7.6543,-0.0473,1.0492,9.7503,0.055,0.1466,-0.0489,-2.2,20.5,-44.7,4.71,-5.85,0.13,36.814056,-119.74735,260.11,336.86720523644766,0.66,12.903226,,17 / 17,2178,2015-10-30 10:12:43:999
0.5782,0.9385,11.2946,-0.0659,0.9919,9.7561,-0.1564,-0.1136,0.0098,-2.0,19.4,-45.4,5.61,-5.81,0.39,36.814056,-119.74735,260.11,336.86720523644766,0.66,12.903226,,17 / 17,2280,2015-10-30 10:12:44:101
-1.1432,-0.1185,11.9459,-0.1377,1.0116,9.7534,0.3543,0.1881,-0.7624,-2.1,19.2,-45.6,5.7,-5.24,0.39,36.814056,-119.74735,260.11,336.86720523644766,0.66,12.903226,,17 / 17,2381,2015-10-30 10:12:44:202
-0.3579,-0.2622,8.4527,0.0769,1.0904,9.7455,-0.0476,-0.0892,-0.1857,-2.7,19.1,-45.5,6.32,-6.38,-0.45,36.814056,-119.74735,260.11,336.86720523644766,0.66,12.903226,,17 / 17,2484,2015-10-30 10:12:44:305
-0.5447,0.6309,9.7863,0.0658,0.8066,9.7732,-0.5241,-0.1148,-0.0257,-3.4,19.3,-45.5,6.83,-5.83,-0.24,36.814056,-119.74735,260.11,336.86720523644766,0.66,12.903226,,17 / 17,2586,2015-10-30 10:12:44:407
-0.559,1.5957,7.5022,-0.0649,0.8078,9.7731,0.1051,0.1332,-0.0415,-3.9,19.5,-45.5,9.95,-4.58,0.16,36.814056,-119.74735,260.11,336.86720523644766,0.66,12.903226,,17 / 17,2687,2015-10-30 10:12:44:508
0.735,1.4269,10.3525,-0.0657,0.6619,9.7841,-0.1772,0.1344,0.248,-4.0,19.9,-45.4,10.5,-4.18,0.39,36.814056,-119.74735,260.11,336.86720523644766,0.66,12.903226,,17 / 17,2790,2015-10-30 10:12:44:611
-0.4393,0.8356,11.0193,-0.2582,0.7534,9.7743,0.1784,0.2321,0.0415,-3.5,20.2,-45.4,9.95,-4.03,1.34,36.814056,-119.74735,260.11,336.86720523644766,0.66,12.903226,,17 / 17,2892,2015-10-30 10:12:44:713
-0.9493,-1.0846,11.4934,-0.3967,0.786,9.767,-0.1185,-0.0257,0.3738,-2.4,20.1,-45.1,9.23,-4.6,2.33,36.814056,-119.74735,260.11,336.86720523644766,0.66,12.903226,,17 / 17,2994,2015-10-30 10:12:44:815
-1.5191,0.4848,7.908,0.0016,0.6889,9.7824,-0.1906,-0.0293,-0.0195,-1.6,19.9,-45.2,5.0,-4.36,0.06,36.814056,-119.74735,260.11,336.86720523644766,0.66,12.903226,,17 / 17,3096,2015-10-30 10:12:44:917
0.2047,0.978,7.1108,0.3153,0.5433,9.7865,0.4753,-0.3567,0.1393,-1.6,19.7,-45.2,1.4,-3.18,-1.85,36.814056,-119.74735,260.11,336.86720523644766,0.66,12.903226,,17 / 17,3198,2015-10-30 10:12:45:019
-0.6752,1.1193,8.8633,0.4011,0.6806,9.7748,-0.1491,0.0709,-0.0379,-2.1,19.7,-45.2,0.19,-4.34,-2.45,36.814056,-119.74735,260.11,336.86720523644766,0.66,12.903226,,17 / 17,3299,2015-10-30 10:12:45:120
-0.322,1.5371,11.2348,0.3702,0.6272,9.7796,0.1625,0.2211,-0.2639,-2.9,19.7,-45.3,3.25,-3.67,-2.17,36.814056,-119.74735,260.11,336.86720523644766,0.66,12.903226,,17 / 17,3401,2015-10-30 10:12:45:222
-1.9405,-1.7358,11.7699,0.1115,0.595,9.7879,-0.7611,0.3604,0.3506,-3.1,19.4,-45.4,5.04,-4.41,-1.3,36.814056,-119.74735,260.11,336.86720523644766,0.66,12.903226,,17 / 17,3503,2015-10-30 10:12:45:324
-0.3208,-0.0515,6.6463,0.1761,0.5775,9.788,0.5143,-0.171,-0.2114,-2.8,19.5,-45.1,5.53,-3.38,-1.03,36.814056,-119.74735,260.11,336.86720523644766,0.66,12.903226,,17 / 17,3605,2015-10-30 10:12:45:426
1.2761,-0.1592,9.3673,0.2259,0.2947,9.7996,-0.3531,-0.2529,-0.0733,-2.4,19.6,-44.6,3.35,-2.16,-0.93,36.814056,-119.74735,260.11,336.86720523644766,0.66,12.903226,,17 / 17,3707,2015-10-30 10:12:45:528
-1.0211,1.5443,7.1084,0.0066,0.4218,9.7976,0.0428,0.1662,-0.0806,-2.5,20.3,-44.0,5.15,-2.47,-0.04,36.814056,-119.74735,260.11,336.86720523644766,0.66,12.903226,,17 / 17,3809,2015-10-30 10:12:45:630
1.4653,1.063,10.337,0.099,0.3447,9.8001,-0.1295,-0.1723,0.2957,-2.7,20.5,-43.7,6.6,-2.11,-0.5,36.814056,-119.74735,260.11,336.86720523644766,0.66,12.903226,,17 / 17,3911,2015-10-30 10:12:45:732
-0.6105,-0.4405,11.0492,-0.1108,0.5762,9.7891,0.2859,0.2615,0.0073,-2.7,20.7,-43.7,8.45,-3.37,0.65,36.814056,-119.74735,260.11,336.86720523644766,0.66,12.903226,,17 / 17,4013,2015-10-30 10:12:45:834
-0.6644,-1.2785,12.6546,-0.2103,0.3609,9.7978,0.3946,-0.2957,-0.1735,-2.1,20.4,-43.4,7.72,-2.11,1.23,36.814056,-119.74735,260.11,336.86720523644766,0.66,12.903226,,17 / 17,4115,2015-10-30 10:12:45:936
-0.4585,0.4022,10.5357,0.0847,0.3622,9.7996,-0.1894,-0.3971,0.0794,-1.8,20.1,-43.3,4.32,-2.12,-0.5,36.814056,-119.74735,260.11,336.86720523644766,0.66,12.903226,,17 / 17,4218,2015-10-30 10:12:46:039
-0.3148,0.9948,7.3227,0.3619,0.5138,9.7865,0.2993,-0.2248,-0.0354,-2.1,20.3,-43.3,1.73,-2.51,-1.79,36.814056,-119.74735,260.11,336.86720523644766,0.66,12.903226,,17 / 17,4319,2015-10-30 10:12:46:140
0.3508,1.3108,9.1746,0.5372,0.6606,9.7696,-0.0794,-0.1674,0.0586,-3.4,20.2,-43.5,1.59,-3.86,-3.15,36.814056,-119.74735,260.11,336.86720523644766,0.66,12.903226,,17 / 17,4421,2015-10-30 10:12:46:242
-0.3998,0.7841,11.7627,0.4214,0.7366,9.7699,0.3848,0.2602,-0.259,-4.2,20.3,-43.6,4.69,-3.88,-2.75,36.814056,-119.74735,260.11,336.86720523644766,0.66,12.903226,,17 / 17,4523,2015-10-30 10:12:46:344
1.8016,-1.9525,14.9171,0.2427,0.7654,9.7737,-0.3433,0.1772,-0.1124,-4.6,19.9,-43.7,9.48,-4.48,-1.42,36.814056,-119.74735,260.11,336.86720523644766,0.66,12.903226,,17 / 17,4625,2015-10-30 10:12:46:446
-0.8727,0.085,5.4097,0.3295,0.9613,9.7539,-0.1368,0.3751,-0.1918,-4.7,19.8,-43.9,8.25,-5.63,-1.93,36.814056,-119.74735,260.11,336.86720523644766,0.66,12.903226,,17 / 17,4727,2015-10-30 10:12:46:548
0.668,0.8595,7.7285,0.2658,0.4592,9.7923,0.0195,0.2822,-0.1625,-4.5,20.0,-43.9,7.25,-2.68,-1.55,36.814056,-119.74735,260.11,336.86720523644766,0.66,12.903226,,17 / 17,4830,2015-10-30 10:12:46:651
-0.9565,1.5359,7.5669,-0.0317,0.4144,9.7978,-0.0745,0.2957,-0.055,-4.6,20.6,-43.7,12.42,-2.67,0.1,36.814056,-119.74735,260.11,336.86720523644766,0.66,12.903226,,17 / 17,4932,2015-10-30 10:12:46:753
1.1253,1.1205,10.7512,-0.015,0.4179,9.7977,0.0745,0.1454,0.1979,-4.0,21.4,-42.8,10.11,-2.44,0.09,36.814056,-119.74735,260.11,336.86720523644766,0.66,12.903226,,17 / 17,5034,2015-10-30 10:12:46:855
-1.4688,-1.3012,9.8222,-0.1561,0.7652,9.7755,0.4068,-0.0086,0.0354,-3.3,21.4,-43.0,8.63,-4.48,0.91,36.814056,-119.74735,260.11,336.86720523644766,0.66,12.903226,,17 / 17,5135,2015-10-30 10:12:46:956
-0.729,-1.3204,11.8357,0.0612,0.5586,9.7905,0.7905,0.0012,-0.1527,-2.9,21.3,-43.1,8.08,-2.76,0.36,36.814056,-119.74735,260.11,336.86720523644766,0.66,12.903226,,17 / 17,5238,2015-10-30 10:12:47:059
0.0431,0.8595,9.7588,0.1268,0.6687,9.783,-0.5327,-0.3091,0.1051,-3.0,20.7,-43.6,5.79,-3.91,-0.74,36.814056,-119.74735,260.11,336.86720523644766,0.66,12.903226,,17 / 17,5340,2015-10-30 10:12:47:161
-0.4669,1.0726,7.0294,0.3954,0.6546,9.7768,0.0623,-0.0757,0.0293,-3.4,20.7,-43.6,3.2,-3.72,-2.17,36.814056,-119.74735,260.11,336.86720523644766,0.66,12.903226,,17 / 17,5442,2015-10-30 10:12:47:263
-0.2418,1.5131,10.3298,0.4934,0.6254,9.7742,-0.0684,0.0672,-0.0733,-4.2,20.7,-43.6,4.27,-3.66,-2.89,36.814056,-119.74735,260.11,336.86720523644766,0.66,12.903226,,17 / 17,5544,2015-10-30 10:12:47:365
-0.4046,0.2921,12.7551,0.3456,0.9265,9.7567,0.3873,0.1307,-0.1845,-4.7,21.0,-43.6,7.73,-4.41,-2.21,36.814056,-119.74735,260.11,336.86720523644766,0.66,12.903226,,17 / 17,5646,2015-10-30 10:12:47:467
0.2167,-1.9201,12.8652,0.1053,1.1866,9.734,-0.1234,0.5278,-0.077,-4.8,20.3,-44.3,10.18,-6.95,-0.62,36.814114,-119.7473,255.79,336.86720523644766,3.07,19.35484,,17 / 17,5748,2015-10-30 10:12:47:569
-0.7961,-0.6045,7.2089,0.0476,1.3011,9.7198,-0.5363,-0.1625,0.2651,-4.7,19.7,-44.6,9.77,-7.71,-0.69,36.814114,-119.7473,255.79,336.86720523644766,3.07,19.35484,,17 / 17,5849,2015-10-30 10:12:47:670
0.6692,0.4046,8.8155,0.1049,0.8844,9.7661,-0.2651,0.0281,-0.0305,-4.3,19.0,-45.0,7.64,-5.19,-1.16,36.814114,-119.7473,255.79,336.9053272837496,3.07,19.35484,,17 / 17,5951,2015-10-30 10:12:47:772
-0.5267,1.0894,9.256,-0.1032,0.814,9.7723,-0.1295,0.0525,0.0782,-3.8,19.3,-44.7,11.09,-4.87,0.58,36.814114,-119.7473,255.79,336.9053272837496,3.07,19.35484,,17 / 17,6054,2015-10-30 10:12:47:875
-0.3855,0.2634,11.2575,-0.1389,1.0026,9.7543,0.2407,0.0892,0.2162,-3.2,19.7,-44.6,8.46,-5.87,0.82,36.814114,-119.7473,255.79,336.9053272837496,3.07,19.35484,,17 / 17,6156,2015-10-30 10:12:47:977
-0.595,-1.391,11.7256,-0.1483,1.2905,9.7202,0.0476,-0.3384,0.2297,-2.7,19.4,-44.7,8.47,-7.56,0.87,36.814114,-119.7473,255.79,336.9053272837496,3.07,19.35484,,17 / 17,6257,2015-10-30 10:12:48:078
-1.9106,-0.0527,9.3111,0.041,1.25,9.7266,-0.0904,0.0098,-0.1271,-2.1,18.5,-45.2,4.21,-7.32,-0.24,36.814114,-119.7473,255.79,336.9053272837496,3.07,19.35484,,17 / 17,6360,2015-10-30 10:12:48:181
-0.2059,-0.1472,9.4212,-0.0691,0.8281,9.7714,-0.204,-0.1429,0.0855,-1.9,18.4,-45.2,6.09,-4.84,0.41,36.814114,-119.7473,255.79,336.9053272837496,3.07,19.35484,,17 / 17,6461,2015-10-30 10:12:48:282
-0.2921,-0.893,10.6195,-0.0476,0.695,9.7819,0.1283,-0.0929,-0.1979,-2.0,18.8,-45.2,5.65,-4.17,0.25,36.814114,-119.7473,255.79,336.9053272837496,3.07,19.35484,,17 / 17,6563,2015-10-30 10:12:48:384
-0.8392,-0.1844,9.5313,-0.0549,0.7507,9.7777,0.0562,0.0599,-0.1723,-2.2,19.7,-44.8,5.68,-4.46,0.42,36.814114,-119.7473,255.79,336.9053272837496,3.07,19.35484,,17 / 17,6665,2015-10-30 10:12:48:486
-1.2318,-0.4357,9.7312,-0.0793,0.65,9.7848,-0.0489,-0.0269,-0.0244,-2.5,19.8,-44.8,5.54,-4.01,0.31,36.814114,-119.7473,255.79,336.9053272837496,3.07,19.35484,,17 / 17,6768,2015-10-30 10:12:48:589
-1.2103,-0.0431,10.2137,-0.0611,0.7342,9.7789,0.1222,-0.1112,0.2468,-2.8,19.6,-44.6,8.01,-4.29,0.36,36.814114,-119.7473,255.79,336.9053272837496,3.07,19.35484,,17 / 17,6869,2015-10-30 10:12:48:690
-0.4932,0.3663,10.0305,0.0558,0.9733,9.7581,0.391,-0.1429,0.303,-2.8,19.4,-44.9,7.27,-4.97,-0.11,36.814114,-119.7473,255.79,336.9053272837496,3.07,19.35484,,17 / 17,6971,2015-10-30 10:12:48:792
-1.087,0.7542,7.8745,-0.1237,1.4654,9.6958,0.4276,0.2443,0.9456,-2.5,18.1,-45.5,5.99,-8.59,0.73,36.814114,-119.7473,255.79,336.9053272837496,3.07,19.35484,,17 / 17,7074,2015-10-30 10:12:48:895
0.8224,1.0606,9.1674,-0.1824,1.4144,9.7024,0.0696,0.5168,1.1643,-1.3,16.5,-46.2,4.55,-8.29,1.08,36.814114,-119.7473,255.79,336.9053272837496,3.07,19.35484,,17 / 17,7175,2015-10-30 10:12:48:996
-0.7278,0.6907,10.0736,-0.526,1.3644,9.697,-0.1723,0.2309,1.9254,3.2,13.9,-45.8,358.58,-8.0,3.1,36.814114,-119.7473,255.79,336.9053272837496,3.07,19.35484,,17 / 17,7278,2015-10-30 10:12:49:099
-1.3731,0.3867,8.1391,-0.6383,1.4737,9.6743,0.1967,0.5754,2.3298,7.2,11.4,-44.9,347.19,-8.64,3.78,36.814114,-119.7473,255.79,336.9053272837496,3.07,19.35484,,17 / 17,7379,2015-10-30 10:12:49:200
0.8978,-3.7816,12.0488,-0.4074,1.4032,9.6972,-0.8479,-0.3543,3.6004,11.1,6.6,-46.1,326.27,-8.23,2.41,36.814114,-119.7473,255.79,336.9053272837496,3.07,19.35484,,17 / 17,7482,2015-10-30 10:12:49:303
-2.0626,-1.0331,11.0804,0.0374,0.9041,9.7648,-0.3115,0.0941,3.1154,12.5,3.8,-44.8,301.67,-5.29,-0.22,36.814114,-119.7473,255.79,336.9053272837496,3.07,19.35484,,17 / 17,7583,2015-10-30 10:12:49:404
-2.6576,-2.5678,9.1614,-0.0255,0.6954,9.7819,-0.0904,0.1075,3.8998,15.5,-1.8,-43.8,275.47,-4.53,0.5,36.814114,-119.7473,255.79,336.9053272837496,3.07,19.35484,,17 / 17,7685,2015-10-30 10:12:49:506
-0.7697,-3.2477,9.8785,0.0565,0.5791,9.7894,0.099,0.2602,3.6725,11.4,-16.1,-42.3,219.8,-3.39,-0.33,36.814114,-119.7473,255.79,336.9053272837496,3.07,19.35484,,17 / 17,7787,2015-10-30 10:12:49:608
0.5411,-3.4081,10.1167,-0.2293,0.3878,9.7963,-0.1943,0.7929,3.361,8.1,-19.6,-41.4,202.94,-2.93,0.61,36.814114,-119.7473,255.79,336.9053272837496,3.07,19.35484,,17 / 17,7890,2015-10-30 10:12:49:711
2.8958,-2.3511,9.7695,-0.6724,0.187,9.7818,-0.3372,0.6243,3.2266,1.8,-24.0,-43.3,177.64,-1.09,3.93,36.814114,-119.7473,255.79,336.9053272837496,3.07,19.35484,,17 / 17,7992,2015-10-30 10:12:49:813
2.636,-2.6851,10.6566,-0.9512,-0.0485,9.7603,-0.4533,-0.0574,2.1002,-0.8,-24.3,-44.9,167.59,-0.22,5.41,36.814114,-119.7473,255.79,336.9053272837496,3.07,19.35484,,17 / 17,8093,2015-10-30 10:12:49:914
2.4948,-0.589,9.3637,-0.6747,-0.2478,9.7803,-0.617,-0.391,1.0641,-4.0,-24.7,-44.3,163.24,0.5,4.77,36.814114,-119.7473,255.79,336.9053272837496,3.07,19.35484,,17 / 17,8196,2015-10-30 10:12:50:017
0.5578,0.9349,8.6993,-0.4606,-0.4704,9.7845,0.1613,0.0538,0.3384,-7.6,-23.9,-44.9,158.84,2.75,2.7,36.814114,-119.7473,255.79,336.9053272837496,3.07,19.35484,,17 / 17,8297,2015-10-30 10:12:50:118
0.34,0.1377,11.8537,-0.2099,-0.5917,9.7865,-0.4093,-0.6329,0.2443,-8.9,-23.4,-44.6,158.78,3.46,1.23,36.814114,-119.7473,255.79,336.9053272837496,3.07,19.35484,,17 / 17,8400,2015-10-30 10:12:50:221
-0.7805,-0.2562,9.5074,-0.0601,-0.3303,9.8009,0.2859,-0.0538,0.0318,-11.2,-22.5,-44.7,154.67,2.43,0.39,36.814114,-119.7473,255.79,336.9053272837496,3.07,19.35484,,17 / 17,8502,2015-10-30 10:12:50:323
-0.4094,0.4238,9.7456,-0.0548,-0.1977,9.8045,0.1723,0.0208,0.0501,-12.4,-22.6,-44.7,152.86,1.15,0.32,36.814114,-119.7473,255.79,336.9053272837496,3.07,19.35484,,17 / 17,8603,2015-10-30 10:12:50:424
0.1508,0.1664,9.1375,-0.0604,0.0027,9.8065,0.2285,-0.022,0.1503,-12.9,-23.1,-44.3,150.26,0.3,0.35,36.814114,-119.7473,255.79,336.9053272837496,3.07,19.35484,,17 / 17,8706,2015-10-30 10:12:50:527
0.0012,-0.1556,10.6219,-0.0016,-0.0102,9.8066,0.0037,-0.2553,0.0623,-13.2,-23.9,-44.0,151.59,0.06,0.01,36.814114,-119.7473,255.79,336.9053272837496,3.07,19.35484,,17 / 17,8807,2015-10-30 10:12:50:628
-0.6943,-0.0431,9.3996,0.1114,0.2465,9.8029,0.182,-0.1625,0.0965,-13.5,-24.3,-43.8,151.41,-1.08,-0.49,36.814114,-119.7473,255.79,336.9053272837496,3.07,19.35484,,17 / 17,8909,2015-10-30 10:12:50:730
-0.2622,0.4286,8.9435,0.1576,0.3569,9.7989,0.1356,0.0098,-0.0342,-13.9,-24.8,-43.3,150.91,-1.83,-1.15,36.814114,-119.7473,255.79,336.9053272837496,3.07,19.35484,,17 / 17,9012,2015-10-30 10:12:50:833
0.5543,0.0599,10.4926,0.2745,0.2535,9.7995,-0.1625,-0.1564,0.0024,-14.3,-25.2,-43.0,151.82,-1.48,-1.6,36.814114,-119.7473,255.79,336.9053272837496,3.07,19.35484,,17 / 17,9113,2015-10-30 10:12:50:934
0.2957,0.3531,9.396,0.3132,0.3103,9.7967,0.0281,-0.0367,-0.1295,-14.4,-25.5,-42.9,152.0,-1.81,-1.83,36.814114,-119.7473,255.79,336.9053272837496,3.07,19.35484,,17 / 17,9215,2015-10-30 10:12:51:036
0.0682,0.5148,9.5888,0.3191,0.3534,9.7951,0.0513,-0.0892,-0.0672,-14.4,-25.5,-42.9,151.73,-2.06,-1.87,36.814114,-119.7473,255.79,336.9053272837496,3.07,19.35484,,17 / 17,9317,2015-10-30 10:12:51:138
0.2598,0.492,9.918,0.3764,0.3738,9.7923,-0.0147,-0.0696,-0.0757,-14.2,-25.6,-42.8,152.98,-2.18,-2.11,36.814114,-119.7473,255.79,336.9053272837496,3.07,19.35484,,17 / 17,9420,2015-10-30 10:12:51:241
0.0587,0.8655,8.9471,0.3721,0.4766,9.788,0.1662,0.0208,-0.0611,-14.0,-25.9,-42.3,152.59,-2.79,-2.18,36.814114,-119.7473,255.79,336.9053272837496,3.07,19.35484,,17 / 17,9521,2015-10-30 10:12:51:342
0.261,0.5926,9.8533,0.4099,0.4735,9.7866,-0.0635,-0.066,-0.0147,-13.9,-26.2,-42.1,152.91,-2.77,-2.4,36.814114,-119.7473,255.79,336.9053272837496,3.07,19.35484,,17 / 17,9624,2015-10-30 10:12:51:445
0.3124,0.5974,9.5517,0.4429,0.4766,9.785,0.0354,-0.0367,-0.0635,-14.0,-26.3,-42.3,153.22,-2.69,-2.57,36.814114,-119.7473,255.79,336.9053272837496,3.07,19.35484,,17 / 17,9726,2015-10-30 10:12:51:547
0.3603,0.5555,9.402,0.4476,0.4875,9.7843,-0.0098,-0.0244,-0.0391,-14.1,-26.3,-42.1,153.16,-2.85,-2.62,36.814114,-119.7473,255.79,336.9053272837496,3.07,19.35484,,17 / 17,9827,2015-10-30 10:12:51:648
0.012,0.5878,9.7229,0.4221,0.4429,9.7875,-0.0721,0.0501,-0.0819,-14.1,-26.4,-41.8,153.21,-2.68,-2.56,36.814114,-119.7473,255.79,336.9053272837496,3.07,19.35484,,17 / 17,9930,2015-10-30 10:12:51:751
-0.0431,0.7147,10.0844,0.4021,0.4186,9.7895,-0.0244,0.0086,-0.0574,-14.0,-26.4,-41.4,153.18,-2.38,-2.41,36.814114,-119.7473,255.79,336.9053272837496,3.07,19.35484,,17 / 17,10031,2015-10-30 10:12:51:852
-0.103,0.7003,9.4164,0.3827,0.4715,9.7878,0.0538,-0.0244,0.0538,-13.6,-26.3,-41.6,152.7,-2.76,-2.24,36.814114,-119.7473,255.79,336.9053272837496,3.07,19.35484,,17 / 17,10133,2015-10-30 10:12:51:954
0.2322,0.5986,9.6462,0.3909,0.4806,9.7871,-0.0134,-0.0134,0.1087,-13.6,-26.2,-41.9,152.73,-2.81,-2.29,36.814114,-119.7473,255.79,336.9053272837496,3.07,19.35484,,17 / 17,10235,2015-10-30 10:12:52:056
0.4046,0.5974,9.6726,0.3775,0.4632,9.7884,-0.0171,0.0183,0.1014,-13.7,-26.2,-42.0,152.66,-2.76,-2.21,36.814114,-119.7473,255.79,336.9053272837496,3.07,19.35484,,17 / 17,10337,2015-10-30 10:12:52:158
0.4741,0.5076,9.7025,0.3812,0.4363,9.7895,-0.0379,0.0049,0.044,-14.0,-26.1,-42.1,152.84,-2.55,-2.23,36.814114,-119.7473,255.79,336.9053272837496,3.07,19.35484,,17 / 17,10439,2015-10-30 10:12:52:260
0.3136,0.6728,9.645,0.3869,0.426,9.7898,-0.0012,0.0073,-0.0159,-14.1,-26.1,-41.8,152.93,-2.49,-2.26,36.814114,-119.7473,255.79,336.9053272837496,3.07,19.35484,,17 / 17,10541,2015-10-30 10:12:52:362
0.1341,0.9194,9.2596,0.4026,0.4286,9.789,-0.1002,-0.1038,-0.022,-14.2,-26.0,-41.9,153.0,-2.56,-2.35,36.814114,-119.7473,255.79,336.9053272837496,3.07,19.35484,,17 / 17,10644,2015-10-30 10:12:52:465
0.0443,1.4341,9.4403,0.4799,0.3551,9.7885,-0.1148,-0.0709,0.0086,-14.3,-25.9,-42.0,153.99,-2.08,-2.81,36.814114,-119.7473,255.79,336.9053272837496,3.07,19.35484,,17 / 17,10745,2015-10-30 10:12:52:566
-0.3998,1.5467,9.7169,0.4679,0.3049,9.7907,-0.1955,0.0403,0.11,-14.4,-25.6,-42.2,154.09,-1.78,-2.74,36.814114,-119.7473,255.79,336.9053272837496,3.07,19.35484,,17 / 17,10847,2015-10-30 10:12:52:668
0.2634,1.6783,9.5553,0.3298,0.2387,9.7982,-0.022,0.1283,0.0648,-14.5,-25.2,-42.5,152.7,-1.31,-2.18,36.814114,-119.7473,255.79,336.9053272837496,3.07,19.35484,,17 / 17,10950,2015-10-30 10:12:52:771
0.073,1.8495,8.9615,0.3251,0.3167,9.7961,0.0293,-0.0379,0.1222,-14.5,-24.9,-42.6,151.94,-1.71,-1.82,36.814114,-119.7473,255.79,336.9053272837496,3.07,19.35484,,17 / 17,11052,2015-10-30 10:12:52:873
0.243,1.482,9.7743,0.4109,0.2736,9.7942,-0.2016,-0.1393,0.16,-14.8,-24.5,-42.6,149.93,-1.6,-2.4,36.814114,-119.7473,255.79,336.9053272837496,3.07,19.35484,,17 / 17,11154,2015-10-30 10:12:52:975
0.2873,2.0662,9.6929,0.6163,0.2782,9.7833,0.1124,-0.1552,-0.0232,-15.7,-24.1,-42.6,149.63,-1.34,-3.36,36.814114,-119.7473,255.79,336.9053272837496,3.07,19.35484,,17 / 17,11255,2015-10-30 10:12:53:076
1.2175,1.9213,11.3808,0.7179,0.3669,9.7735,0.1796,0.1344,-0.3555,-16.6,-23.8,-42.5,148.26,-2.14,-4.25,36.814114,-119.7473,255.79,336.9053272837496,3.07,19.35484,,17 / 17,11358,2015-10-30 10:12:53:179
-0.0742,-0.0251,10.0628,0.5288,0.6993,9.7674,0.4594,0.3971,-0.6023,-16.9,-24.3,-42.3,144.85,-4.09,-3.1,36.814114,-119.7473,255.79,336.9053272837496,3.07,19.35484,,17 / 17,11459,2015-10-30 10:12:53:280
1.986,-1.2689,13.7511,0.5099,0.4537,9.7829,-0.3787,-0.1906,-0.4276,-16.4,-24.7,-42.1,149.04,-2.65,-2.98,36.814114,-119.7473,255.79,336.9053272837496,3.07,19.35484,,17 / 17,11562,2015-10-30 10:12:53:383
0.1652,-0.1891,10.1299,0.3755,0.5349,9.7849,0.0977,-0.0611,-0.2089,-15.0,-25.0,-42.1,149.42,-3.13,-2.2,36.814114,-119.7473,255.79,336.9053272837496,3.07,19.35484,,17 / 17,11663,2015-10-30 10:12:53:484
0.7015,0.2107,7.7093,0.3574,0.7485,9.7715,0.281,0.0195,0.0073,-13.9,-25.2,-41.8,150.13,-4.38,-2.09,36.814114,-119.7473,255.79,336.9053272837496,3.07,19.35484,,17 / 17,11765,2015-10-30 10:12:53:586
1.1983,0.8176,8.6491,0.3422,0.8719,9.7618,0.1759,0.1662,-0.0757,-13.2,-25.5,-41.9,152.18,-4.8,-2.34,36.814114,-119.7473,255.79,336.9053272837496,3.07,19.35484,,17 / 17,11867,2015-10-30 10:12:53:688
0.2406,1.3659,9.8007,0.3433,0.9572,9.7538,0.1026,-0.0562,0.1747,-12.6,-26.2,-41.6,151.99,-5.4,-1.84,36.814114,-119.7473,255.79,336.9053272837496,3.07,19.35484,,17 / 17,11969,2015-10-30 10:12:53:790
-0.2394,1.0618,10.7141,0.3809,1.109,9.7363,0.1918,-0.0305,0.1234,-12.4,-26.9,-41.1,154.86,-6.49,-2.24,36.814114,-119.7473,255.79,336.9053272837496,3.07,19.35484,,17 / 17,12071,2015-10-30 10:12:53:892
-0.7602,0.2095,10.6207,0.4884,0.954,9.7479,-0.4777,-0.3262,0.347,-12.4,-27.1,-40.9,153.86,-6.9,-1.78,36.814114,-119.7473,255.79,336.9053272837496,3.07,19.35484,,17 / 17,12173,2015-10-30 10:12:53:994
-1.3743,1.1121,8.934,0.5517,0.8462,9.7545,-0.0696,0.0819,0.2028,-13.1,-27.0,-40.9,155.7,-5.02,-3.47,36.814114,-119.7473,255.79,336.9053272837496,3.07,19.35484,,17 / 17,12275,2015-10-30 10:12:54:096
0.9816,1.6328,5.636,0.6221,0.9059,9.7449,0.2065,0.0733,0.2639,-14.3,-26.5,-41.1,152.72,-5.3,-3.65,36.814114,-119.7473,255.79,336.9053272837496,3.07,19.35484,,17 / 17,12378,2015-10-30 10:12:54:199
0.9361,1.962,9.8653,0.7212,0.698,9.7552,-0.4618,-0.2199,0.121,-15.1,-26.1,-41.1,152.52,-4.08,-4.23,36.814114,-119.7473,255.79,336.9053272837496,3.07,19.35484,,17 / 17,12479,2015-10-30 10:12:54:300
0.0455,2.0279,10.7883,0.6616,0.5414,9.7693,-0.1564,0.0049,-0.1539,-15.7,-25.7,-41.1,150.84,-3.38,-4.01,36.814114,-119.7473,255.79,336.9053272837496,3.07,19.35484,,17 / 17,12582,2015-10-30 10:12:54:403
0.492,-0.3029,11.8645,0.7848,0.4956,9.7626,0.0929,0.1002,-0.1881,-16.0,-25.1,-41.2,150.86,-2.77,-4.43,36.814114,-119.7473,255.79,336.9053272837496,3.07,19.35484,,17 / 17,12684,2015-10-30 10:12:54:505
1.0415,-0.8248,11.3174,0.7237,0.3523,9.7736,-0.3824,-0.2285,-0.1527,-16.1,-24.4,-41.5,148.97,-2.47,-3.67,36.814114,-119.7473,255.79,336.9053272837496,3.07,19.35484,,17 / 17,12785,2015-10-30 10:12:54:606
0.0132,-0.1437,9.5888,0.5424,0.3064,9.7868,-0.4618,-0.171,0.1735,-15.5,-24.1,-41.8,149.47,-2.73,-2.79,36.814114,-119.7473,255.79,336.9053272837496,3.07,19.35484,,17 / 17,12887,2015-10-30 10:12:54:708
1.2713,0.3974,8.8526,0.5783,0.2078,9.7874,0.3836,0.204,0.0428,-15.3,-23.8,-42.1,152.29,-0.67,-3.59,36.814114,-119.7473,255.79,336.9053272837496,3.07,19.35484,,17 / 17,12990,2015-10-30 10:12:54:811
0.1879,1.063,9.0932,0.4815,0.3291,9.7893,-0.011,0.0354,0.1454,-15.0,-23.4,-42.1,149.06,-1.92,-2.82,36.814114,-119.7473,255.79,336.9053272837496,3.07,19.35484,,17 / 17,13091,2015-10-30 10:12:54:912
0.7003,0.5507,11.2276,0.4541,0.486,9.7841,0.1894,0.0415,0.1478,-15.1,-23.2,-42.1,148.57,-2.43,-2.79,36.814114,-119.7473,255.79,336.9053272837496,3.07,19.35484,,17 / 17,13193,2015-10-30 10:12:55:014
-0.5016,-1.3252,10.6961,0.2112,0.5729,9.7876,-0.6683,0.0293,0.2456,-15.1,-23.7,-42.0,146.66,-4.15,-1.73,36.814114,-119.7473,255.79,336.9053272837496,3.07,19.35484,,17 / 17,13296,2015-10-30 10:12:55:117
-0.6273,0.492,6.0693,0.349,0.4888,9.7882,-0.0611,-0.0672,0.1625,-15.2,-23.7,-42.2,148.3,-2.86,-2.04,36.814114,-119.7473,255.79,336.9053272837496,3.07,19.35484,,17 / 17,13397,2015-10-30 10:12:55:218
1.0056,0.3029,10.1969,0.5706,0.1961,9.7881,-0.4313,-0.3238,0.2431,-15.5,-23.4,-42.5,150.17,-1.31,-3.21,36.814114,-119.7473,255.79,336.9053272837496,3.07,19.35484,,17 / 17,13499,2015-10-30 10:12:55:320
-0.0515,1.4246,8.2911,0.514,0.3398,9.7873,-0.0086,-0.1368,0.0464,-16.2,-22.8,-42.9,147.41,-1.99,-3.01,36.814114,-119.7473,255.79,336.9053272837496,3.07,19.35484,,17 / 17,13602,2015-10-30 10:12:55:423
0.5471,1.3096,11.0492,0.5727,0.2824,9.7858,0.1466,0.0819,-0.1796,-16.7,-22.7,-42.8,146.36,-1.65,-3.35,36.814114,-119.7473,255.79,336.9053272837496,3.07,19.35484,,17 / 17,13704,2015-10-30 10:12:55:525
0.1963,0.0802,10.9978,0.4433,0.5737,9.7798,0.4679,0.2162,-0.1429,-16.7,-22.9,-42.9,143.61,-3.35,-2.6,36.814114,-119.7473,255.79,336.9053272837496,3.07,19.35484,,17 / 17,13805,2015-10-30 10:12:55:626
0.0168,-0.6213,12.1434,0.2933,0.7201,9.7758,0.0318,-0.0745,-0.2236,-16.5,-23.4,-42.8,143.64,-3.91,-1.71,36.814114,-119.7473,255.79,336.9053272837496,3.07,19.35484,,17 / 17,13908,2015-10-30 10:12:55:729
0.6871,-0.3352,9.0321,0.2577,0.7148,9.7772,-0.496,-0.2334,0.1552,-15.6,-24.3,-42.6,144.42,-4.18,-1.51,36.814114,-119.7473,255.79,336.9053272837496,3.07,19.35484,,17 / 17,14009,2015-10-30 10:12:55:830
0.5303,1.1564,7.1156,0.2995,0.5516,9.7865,0.0476,0.088,-0.1491,-15.2,-24.6,-42.5,148.73,-3.22,-1.75,36.814114,-119.7473,255.79,336.9053272837496,3.07,19.35484,,17 / 17,14111,2015-10-30 10:12:55:932
0.4908,1.5203,8.9507,0.2445,0.559,9.7877,-0.0806,-0.1332,0.1136,-14.8,-24.7,-42.8,148.24,-3.27,-1.43,36.814114,-119.7473,255.79,336.9053272837496,3.07,19.35484,,17 / 17,14213,2015-10-30 10:12:56:034
0.7302,0.9218,11.1797,0.3437,0.6368,9.7799,0.2224,0.088,-0.0672,-14.9,-24.6,-43.0,149.06,-3.42,-2.12,36.814114,-119.7473,255.79,336.9053272837496,3.07,19.35484,,17 / 17,14315,2015-10-30 10:12:56:136
-1.2689,-0.4824,10.7583,0.207,0.8548,9.7671,-0.3775,-0.325,0.2065,-14.8,-25.1,-43.3,146.31,-5.0,-1.21,36.814114,-119.7473,255.79,336.9053272837496,3.07,19.35484,,17 / 17,14417,2015-10-30 10:12:56:238
-0.2394,0.6596,7.1275,0.4534,0.7943,9.7639,0.2798,-0.1075,0.1405,-15.1,-25.5,-43.1,148.72,-4.65,-2.66,36.814114,-119.7473,255.79,336.9053272837496,3.07,19.35484,,17 / 17,14519,2015-10-30 10:12:56:340
0.5447,0.6704,9.651,0.6075,0.5155,9.7742,-0.1991,-0.2236,0.1075,-15.5,-25.6,-42.9,151.43,-3.56,-3.1,36.814114,-119.7473,255.79,336.9053272837496,3.07,19.35484,,17 / 17,14621,2015-10-30 10:12:56:442
-0.1041,1.3922,7.6064,0.6736,0.5536,9.7678,-0.0696,-0.0929,0.033,-16.3,-25.3,-43.0,149.95,-3.24,-3.94,36.814114,-119.7473,255.79,336.9053272837496,3.07,19.35484,,17 / 17,14723,2015-10-30 10:12:56:544
0.668,1.2713,11.1354,0.7651,0.474,9.7653,-0.1136,-0.088,-0.1161,-16.7,-25.1,-43.1,149.52,-2.62,-4.59,36.814114,-119.7473,255.79,336.9053272837496,3.07,19.35484,,17 / 17,14826,2015-10-30 10:12:56:647
-0.1065,-0.5327,10.252,0.729,0.7392,9.7515,0.3824,0.066,-0.2627,-16.7,-25.2,-43.1,147.53,-4.32,-4.28,36.814114,-119.7473,255.79,336.9053272837496,3.07,19.35484,,17 / 17,14927,2015-10-30 10:12:56:748
0.3328,-0.9541,10.8613,0.5435,0.8391,9.7556,0.5107,0.5388,-0.1368,-16.4,-25.5,-42.9,148.77,-4.05,-3.64,36.814114,-119.7473,255.79,336.9053272837496,3.07,19.35484,,17 / 17,15030,2015-10-30 10:12:56:851
0.6357,-0.0455,10.5345,0.4602,0.4956,9.7833,-0.7563,-0.1772,0.0452,-15.5,-26.2,-42.6,151.38,-2.9,-2.69,36.814114,-119.7473,255.79,336.9053272837496,3.07,19.35484,,17 / 17,15131,2015-10-30 10:12:56:952
0.1808,1.1169,7.3227,0.2456,0.453,9.7931,0.2798,0.4349,-0.1454,-14.9,-26.0,-42.9,151.2,-2.16,-2.14,36.814114,-119.7473,255.79,336.9053272837496,3.07,19.35484,,17 / 17,15233,2015-10-30 10:12:57:054
0.741,1.1277,9.8737,0.2302,0.4522,9.7935,0.033,-0.16,0.1943,-14.0,-25.6,-43.4,151.08,-2.62,-0.99,36.814114,-119.7473,255.79,336.9053272837496,3.07,19.35484,,17 / 17,15335,2015-10-30 10:12:57:156
0.3089,0.8236,11.1905,0.2108,0.6986,9.7795,0.3299,0.0513,0.0623,-13.9,-25.3,-43.9,150.03,-3.41,-1.47,36.814114,-119.7473,255.79,336.9053272837496,3.07,19.35484,,17 / 17,15438,2015-10-30 10:12:57:259
-1.0546,-1.3012,12.0404,0.0567,0.8231,9.7719,-0.3543,-0.044,-0.011,-13.6,-26.0,-43.7,148.25,-4.81,-0.33,36.814114,-119.7473,255.79,336.9053272837496,3.07,19.35484,,17 / 17,15539,2015-10-30 10:12:57:360
-1.3192,0.8092,7.5573,0.1804,0.6952,9.7803,-0.0403,0.1564,-0.0794,-13.6,-26.5,-43.5,150.0,-4.07,-1.06,36.814114,-119.7473,255.79,336.9053272837496,3.07,19.35484,,17 / 17,15642,2015-10-30 10:12:57:463
0.6237,0.4178,8.9735,0.3992,0.3892,9.7908,-0.0476,-0.1674,0.0379,-13.5,-26.3,-43.3,154.2,-2.62,-1.86,36.814114,-119.7473,255.79,336.9053272837496,3.07,19.35484,,17 / 17,15744,2015-10-30 10:12:57:565
-0.0838,0.5303,9.4571,0.5448,0.3413,9.7856,-0.0696,-0.1747,-0.0916,-14.2,-25.4,-43.6,153.79,-1.99,-3.19,36.814114,-119.7473,255.79,336.9053272837496,3.07,19.35484,,17 / 17,15845,2015-10-30 10:12:57:666
-0.2203,0.3364,11.6083,0.5705,0.5495,9.7746,0.3653,0.0452,-0.4154,-14.6,-25.0,-43.4,152.12,-2.22,-3.54,36.814114,-119.7473,255.79,336.9053272837496,3.07,19.35484,,17 / 17,15947,2015-10-30 10:12:57:768
0.8296,-0.7242,10.6506,0.452,0.8846,9.7562,-0.0281,0.182,-0.5156,-14.4,-25.5,-43.1,150.22,-5.18,-2.65,36.814114,-119.7473,255.79,336.9053272837496,3.07,19.35484,,17 / 17,16050,2015-10-30 10:12:57:871
-0.7554,-0.9804,10.6422,0.1629,0.8887,9.7649,0.0305,0.1967,-0.4606,-13.5,-26.3,-42.9,151.37,-5.1,-1.28,36.814114,-119.7473,255.79,336.9053272837496,3.07,19.35484,,17 / 17,16151,2015-10-30 10:12:57:972
-0.4441,-0.085,10.5321,-0.1008,0.9463,9.7604,-0.226,0.1466,-0.1808,-11.6,-27.4,-42.6,151.31,-5.54,0.59,36.814114,-119.7473,255.79,336.9053272837496,3.07,19.35484,,17 / 17,16253,2015-10-30 10:12:58:074
-1.3539,0.5914,8.1367,-0.4254,1.1856,9.7254,0.4569,0.4288,-0.1784,-9.5,-28.1,-42.7,154.36,-6.94,2.5,36.814114,-119.7473,255.79,336.9053272837496,3.07,19.35484,,17 / 17,16355,2015-10-30 10:12:58:176
-1.0582,0.5124,9.9587,-0.582,1.3504,9.6958,0.3812,0.2688,0.248,-8.4,-28.6,-42.6,155.88,-7.42,3.25,36.814114,-119.7473,255.79,336.9053272837496,3.07,19.35484,,17 / 17,16458,2015-10-30 10:12:58:279
-1.1516,0.9122,9.657,-0.729,1.5326,9.6587,0.0525,0.0257,0.0428,-7.1,-29.7,-41.8,156.36,-8.99,4.32,36.814114,-119.7473,255.79,336.9053272837496,3.07,19.35484,,17 / 17,16559,2015-10-30 10:12:58:380
-1.391,0.6512,9.7157,-0.8558,1.5339,9.6481,-0.2578,-0.1381,-0.121,-6.6,-30.4,-41.0,154.99,-9.5,5.23,36.814114,-119.7473,255.79,336.9053272837496,3.07,19.35484,,17 / 17,16662,2015-10-30 10:12:58:483
-1.3599,1.0582,9.3218,-0.8108,1.4374,9.6668,-0.1564,-0.0513,-0.1063,-6.1,-30.9,-40.6,159.19,-8.43,4.79,36.814034,-119.74731,253.93,336.9053272837496,3.13,19.35484,,17 / 17,16764,2015-10-30 10:12:58:585
-1.3934,0.9349,9.9719,-0.777,1.2445,9.6963,-0.1906,-0.0941,-0.0489,-5.9,-30.8,-40.5,160.09,-7.63,4.67,36.814034,-119.74731,253.93,336.9053272837496,3.13,19.35484,,17 / 17,16865,2015-10-30 10:12:58:686
-1.1528,1.1289,9.6953,-0.7624,1.1619,9.7077,-0.0281,-0.0244,-0.1063,-5.8,-30.4,-40.7,159.81,-6.8,4.49,36.814034,-119.74731,253.93,336.9053272837496,3.13,19.35484,,17 / 17,16968,2015-10-30 10:12:58:789
-1.0654,1.0295,9.6187,-0.7146,1.0765,9.7212,-0.1478,-0.1442,-0.0403,-5.8,-29.9,-40.7,160.09,-6.56,4.39,36.814034,-119.74731,253.93,336.9053272837496,3.13,19.35484,,17 / 17,17069,2015-10-30 10:12:58:890
-1.0702,1.0343,9.2332,-0.6727,1.0575,9.7262,0.0464,-0.0147,-0.055,-5.8,-29.3,-41.0,160.19,-6.19,3.96,36.814034,-119.74731,253.93,336.9053272837496,3.13,19.35484,,17 / 17,17172,2015-10-30 10:12:58:993
-1.3072,1.1624,9.584,-0.6883,1.042,9.7268,-0.033,-0.0379,-0.0562,-5.7,-29.2,-41.3,160.15,-6.15,3.99,36.814034,-119.74731,253.93,336.9053272837496,3.13,19.35484,,17 / 17,17274,2015-10-30 10:12:59:095
-1.093,1.1516,9.6367,-0.6616,1.0098,9.7321,0.0232,-0.0305,0.0061,-5.7,-29.2,-41.7,160.19,-5.89,3.92,36.814034,-119.74731,253.93,336.9053272837496,3.13,19.35484,,17 / 17,17375,2015-10-30 10:12:59:196
-1.1528,1.3647,6.0394,-0.6558,0.9815,9.7353,0.022,0.0318,-0.033,-5.8,-29.2,-42.1,160.13,-5.94,3.94,36.814034,-119.74731,253.93,336.9053272837496,3.13,19.35484,,17 / 17,17477,2015-10-30 10:12:59:298