accX,accY,accZ,gX,gY,gZ,gyrX,gyrY,gyrZ,mX,mY,mZ,oZ,oX,oY,delta
-0.3268,-0.2526,9.9,-0.1337,-0.1165,9.805,0.0195,-0.055,-0.0086,-2.4,22.3,-43.5,6.86,0.68,0.78,45
-0.3591,-0.0335,9.8462,-0.1179,-0.0726,9.8057,0.0367,0.0244,0.0415,-2.4,22.1,-43.8,6.61,0.53,0.65,147
-0.3412,-0.1233,9.6426,-0.1484,-0.092,9.8051,-0.0452,-0.0134,0.0024,-2.5,21.9,-43.7,7.04,0.54,0.87,250
-0.2406,-0.0503,9.6929,-0.1319,-0.1066,9.8052,0.0183,-0.0281,0.011,-2.5,21.9,-43.5,6.92,0.65,0.81,352
-0.3519,-0.0431,9.5277,-0.1071,-0.0914,9.8056,0.0428,-0.0367,0.0159,-2.5,21.9,-43.2,6.63,0.61,0.67,454
-0.2215,-0.006,9.7624,-0.0754,-0.061,9.8062,0.033,-0.0232,-0.0073,-2.4,22,-43,6.12,0.36,0.44,555
-0.261,-0.1089,9.7719,-0.0559,-0.0474,9.8064,0.0232,-0.044,-0.0061,-2.5,21.9,-42.9,5.88,0.28,0.33,657
-0.2538,-0.0455,9.6702,-0.0593,-0.0236,9.8064,0.0171,-0.0159,-0.0086,-2.6,21.8,-42.7,8.48,0.17,0.35,760
-0.1664,-0.0527,9.7839,-0.0505,-0.0185,9.8065,0.0354,-0.0049,0.0024,-2.8,21.8,-42.9,8.42,0.13,0.32,862
-0.1508,0.1209,9.76,-0.0311,-0.0036,9.8066,-0.0024,-0.0415,0.0073,-2.9,21.7,-43,8.12,0.02,0.18,964
-0.2478,0.0108,9.6367,-0.0129,-0.0066,9.8066,-0.0037,-0.0024,-0.011,-3.1,21.7,-43.2,7.92,0.04,0.08,1065
-0.0982,0.0072,9.7887,0.0127,-0.0017,9.8066,0.0122,-0.0574,-0.0122,-3.1,21.7,-43.3,7.8,0.03,0.01,1167
-0.1125,-0.0431,9.5852,0.037,-0.0115,9.8066,-0.0122,-0.044,0.0037,-3.3,21.7,-43.4,7.37,0.07,-0.22,1269
-0.0359,0.0347,9.7731,0.0961,-0.0195,9.8062,0.0037,-0.0929,0.0318,-3.4,21.7,-43.3,7,0.13,-0.42,1371
-0.0622,0.0287,9.7252,0.1225,0.0047,9.8059,0.0318,-0.0024,0.0122,-3.7,21.8,-43.5,8.94,0.02,-0.72,1473
0,0.0934,9.8138,0.1,0.0232,9.8061,0.0098,0.0476,0.0073,-3.9,21.8,-43.4,9.03,-0.1,-0.65,1576
-0.0742,0.0275,9.663,0.0736,0.0209,9.8064,0,0.0171,0.0086,-3.8,21.6,-43.3,9.45,-0.12,-0.43,1677
-0.0718,-0.0215,9.7552,0.0637,0.0168,9.8064,-0.0208,-0.0073,0.0183,-3.7,21.6,-43.4,9.56,-0.14,-0.37,1779
-0.0622,0.1018,9.6774,0.0548,0.0323,9.8064,0.0171,0.0147,0.022,-3.6,21.5,-43.8,9.62,-0.19,-0.32,1881
-0.0503,0.1365,9.5505,0.043,0.024,9.8065,-0.0012,0.0171,0.0379,-3.5,21.4,-43.6,7.5,-0.11,-0.29,1984
-0.0395,0.1891,9.7612,0.0254,0.0383,9.8065,0.0379,0.0024,0.0037,-3.3,21.3,-43.6,7.76,-0.22,-0.15,2085
-0.1269,0.1712,9.4954,0.035,0.0323,9.8065,0.0086,0.0098,0.0269,-3.2,21.4,-43.4,7.67,-0.19,-0.2,2188
-0.0754,0.1724,9.8186,0.0521,0.0513,9.8064,0.0098,-0.0147,0.0037,-3.3,21.4,-43.4,7.53,-0.27,-0.26,2290
-0.0922,0.1401,9.7803,0.0502,0.063,9.8063,0.0086,0.0061,-0.0061,-3.3,21.4,-43.2,7.44,-0.37,-0.29,2391
-0.1437,0.158,9.6415,0.0212,0.0501,9.8065,-0.0024,-0.0012,-0.0208,-3.2,21.3,-42.9,7.79,-0.3,-0.13,2493
-0.079,0.0563,9.7588,0.0178,0.0298,9.8066,-0.0061,-0.0037,0.0134,-3,21.3,-43,7.85,-0.21,-0.11,2595
-0.103,0.0802,9.6618,0.0152,0.0281,9.8066,-0.0098,-0.0049,0.0147,-3.1,21.3,-43.1,7.91,-0.16,-0.09,2698
-0.0718,0.0108,9.7001,0.0391,0.0254,9.8065,0.0171,-0.0257,0.0208,-3.2,21.3,-43.6,7.62,-0.15,-0.23,2800
-0.0742,0.0898,9.7288,0.0708,0.0421,9.8063,0.0061,-0.011,0.044,-3.3,21.4,-43.8,7.21,-0.25,-0.41,2901
-0.0682,0.1125,9.6486,0.0638,0.0556,9.8063,-0.0086,-0.0122,0.0281,-3.3,21.4,-43.7,7.24,-0.27,-0.4,3004
-0.012,0.0802,9.8713,0.0859,0.032,9.8062,-0.0195,-0.0269,0.0024,-3.4,21.5,-43.4,6.76,-0.19,-0.5,3105
-0.0455,0.1891,9.8162,0.081,0.0444,9.8062,-0.0024,0.0049,0.0232,-3.3,21.5,-43.4,6.8,-0.26,-0.47,3207
-0.1006,0.1209,9.5457,0.0464,0.0427,9.8064,-0.0134,0.0269,-0.0037,-3.3,21.4,-43.2,7.52,-0.25,-0.27,3309
-0.1018,0.0407,9.5612,0.0311,0.0374,9.8065,0.0024,0.0171,-0.0171,-3.2,21.2,-43.3,7.63,-0.21,-0.22,3411
-0.0503,-0.0156,9.827,0.0417,0.0458,9.8065,-0.0159,-0.022,-0.0061,-3.1,21.2,-43.4,7.57,-0.27,-0.24,3514
-0.1113,0.1185,9.6678,0.0403,0.0301,9.8065,-0.0037,-0.0012,0.044,-3.1,21.2,-43.5,7.61,-0.18,-0.24,3616
-0.1532,0.0515,9.7384,0.031,0.0306,9.8066,-0.0134,-0.0147,0.022,-3.1,21.2,-43.8,7.67,-0.21,-0.2,3717
-0.0838,0.1389,9.7624,0.035,0.0421,9.8065,0.0122,-0.0098,0.0073,-3.2,21.3,-44,7.65,-0.22,-0.2,3819
-0.1006,0.1915,9.6582,0.0078,0.0453,9.8065,0.0024,0.0122,0.0305,-3.1,21.4,-44,7.91,-0.25,-0.07,3922
-0.1065,0.0658,9.8019,0,0.0451,9.8065,0.0049,-0.0269,0.0024,-3.1,21.5,-43.8,7.7,-0.26,0,4023
-0.164,0.0766,9.7707,-0.0051,0.0458,9.8065,0.0122,0.0147,0.0183,-3,21.4,-43.5,8.11,-0.27,0.03,4125
-0.1616,0.1125,9.7707,-0.0223,0.0443,9.8065,-0.0098,0.0183,-0.0024,-2.9,21.4,-43.7,8.32,-0.26,0.13,4228
-0.1652,0.0563,9.7588,-0.0377,0.0307,9.8065,0.0159,0.0257,-0.0049,-2.9,21.5,-43.6,8.15,-0.18,0.22,4330
-0.1365,0.1125,9.6546,-0.049,0.0373,9.8065,-0.0073,0.011,-0.0086,-2.8,21.4,-43.8,8.75,-0.22,0.34,4432
-0.176,0.0299,9.7552,-0.0341,0.0361,9.8065,-0.0049,-0.0257,-0.0147,-2.7,21.3,-43.5,8.47,-0.21,0.2,4533
-0.1772,0.0682,9.7145,-0.0135,0.0412,9.8066,0.011,-0.0208,0.0122,-2.7,21.2,-43.5,8.31,-0.27,0.13,4636
-0.1281,0.0658,9.8497,-3.00E-04,0.0505,9.8065,0.0073,-0.0305,-0.0098,-2.8,21.3,-43.3,8.05,-0.3,0,4738
-0.1832,0.1532,9.6642,-0.0071,0.0402,9.8066,-0.0159,-0.011,0.0024,-2.9,21.3,-43.3,8.15,-0.23,0.04,4840
-0.1113,0.1281,9.6486,-0.0167,0.0439,9.8065,-0.0012,0.0147,0,-2.9,21.3,-42.9,8.25,-0.26,0.1,4941
-0.097,0.0766,9.6666,-0.013,0.0504,9.8065,-0.0086,-0.0073,-0.0037,-2.9,21.3,-43.1,8.23,-0.26,0.09,5043
-0.0599,0.0922,9.748,0.0063,0.0463,9.8065,-0.011,-0.0281,0.0049,-2.9,21.2,-43.3,7.98,-0.27,-0.04,5146
-0.0754,0.1233,9.7169,0.0118,0.045,9.8065,0.011,-0.0086,0.0171,-3,21.3,-43.5,7.92,-0.26,-0.07,5248
-0.1101,0.085,9.8162,0.0218,0.0323,9.8066,0.0159,0,-0.0012,-3.1,21.2,-43.8,7.81,-0.19,-0.13,5349
-0.1401,0.0802,9.5577,0.0108,0.0288,9.8066,-0.033,0.011,0.0086,-3.2,21.2,-43.8,7.87,-0.22,-0.1,5451
-0.0994,0.0048,9.6965,0.0075,0.0232,9.8066,0.0086,-0.0305,0.0183,-3,21.3,-43.6,8,-0.14,-0.04,5553
-0.1532,0.1676,9.7516,0.0133,0.0387,9.8066,-0.0061,0.0049,0.0037,-3,21.3,-43.5,7.89,-0.23,-0.09,5655
-0.1604,0.0251,9.6786,-0.003,0.0259,9.8066,-0.0195,0.0049,-0.0037,-2.9,21.3,-43.6,8.12,-0.15,0.02,5757
-0.0958,0.0622,9.7779,-0.0253,0.0227,9.8066,-0.0281,0.0171,0.011,-2.8,21.2,-43.8,8.32,-0.19,0.12,5859
-0.1664,0.0718,9.8342,-0.0457,0.0136,9.8065,-0.0379,0.0037,0.0244,-2.8,21.3,-43.6,8.65,-0.08,0.27,5961
-0.1137,0.1185,9.8653,-0.0614,0.0135,9.8064,-0.0012,0.0244,0.0086,-2.7,21.3,-43.4,8.82,-0.08,0.36,6063
-0.1437,0.0156,9.7049,-0.0689,-9.00E-04,9.8064,-0.033,-0.0012,-0.0171,-2.7,21.4,-43,8.91,-0.04,0.4,6166
-0.0706,0.0239,9.7767,-0.0681,-0.0083,9.8064,-0.0037,-0.0281,-0.0403,-2.6,21.4,-43.2,8.94,0.05,0.4,6268
-0.2789,-0.0778,9.6163,-0.0716,-0.0323,9.8063,0.0257,0.0037,-0.0012,-2.6,21.4,-43.3,8.96,0.12,0.4,6370
-0.1425,0.103,9.8126,-0.0539,-0.0051,9.8065,0.0269,-0.0391,0.0024,-2.8,21.6,-43.4,8.5,0.05,0.38,6471
-0.2622,0.0634,9.572,-0.0573,-0.0335,9.8064,-0.0269,-0.0012,0.0012,-2.9,21.6,-43.2,8.44,0.13,0.33,6573
-0.2251,0.0575,9.7671,-0.0685,-0.0294,9.8064,-0.0012,0.0037,0.0086,-2.9,21.7,-43.1,8.51,0.22,0.35,6676
-0.1856,-0.0144,9.6881,-0.0812,-0.0449,9.8062,-0.0232,0.0183,-0.0061,-2.9,21.8,-43,8.75,0.26,0.47,6777
-0.2251,0.0467,9.6151,-0.1018,-0.0528,9.806,0.0244,0.0134,0.0024,-2.8,21.8,-43.1,8.91,0.33,0.54,6879
-0.2143,-0.0694,9.6331,-0.0991,-0.0557,9.806,0.0012,0.0244,-0.0147,-2.7,21.8,-43.1,8.9,0.3,0.55,6982
-0.1365,-0.006,9.7695,-0.0855,-0.05,9.8062,0.022,-0.0379,-0.0195,-2.6,21.7,-42.7,8.81,0.29,0.5,7084
-0.2334,-0.0934,9.6917,-0.0691,-0.0457,9.8063,-0.0122,0.0037,-0.0086,-2.6,21.7,-42.9,8.62,0.27,0.4,7186
-0.1903,-0.0359,9.7671,-0.0558,-0.0516,9.8064,0.0024,-0.033,-0.0012,-2.7,21.7,-42.7,8.56,0.3,0.37,7287
-0.2813,-0.0419,9.6331,-0.0512,-0.0634,9.8063,-0.0147,0.0086,0.0098,-2.8,21.6,-42.8,8.44,0.37,0.3,7390
-0.1832,0.0371,9.8114,-0.0677,-0.0638,9.8062,0.0208,0.0122,0.0098,-2.9,21.6,-42.7,8.57,0.38,0.36,7492
-0.1891,0.0323,9.6067,-0.1054,-0.0669,9.8059,-0.0037,0.0367,-0.0086,-3,21.6,-42.8,8.89,0.39,0.53,7594
-0.2753,-0.0455,9.5217,-0.1219,-0.0689,9.8057,0.0281,-0.022,-0.0037,-2.9,21.6,-43,9.17,0.45,0.66,7695
-0.1425,0.0132,9.9491,-0.1102,-0.0549,9.8059,0.011,0.0012,-0.0037,-2.8,21.7,-43.2,9.09,0.32,0.64,7798
-0.3376,-0.0311,9.5205,-0.1203,-0.0869,9.8055,-0.0574,0.0171,0.011,-2.7,21.6,-43.4,9.19,0.41,0.68,7899
-0.231,-0.0108,9.7348,-0.1226,-0.0825,9.8055,0.0061,0,0.0159,-2.8,21.7,-43.6,9.32,0.48,0.72,8002
-0.1867,-0.0431,9.7659,-0.1126,-0.071,9.8057,-0.0024,-0.033,-0.0086,-2.8,21.7,-43.3,9.23,0.41,0.7,8103
-0.2717,0.006,9.7396,-0.1075,-0.0546,9.8059,-0.0281,-0.0098,0.0122,-2.8,21.8,-43.2,9.06,0.32,0.63,8205
-0.2011,0.1592,9.8749,-0.1154,-0.0483,9.8059,0.0159,-0.0122,0.0086,-3,21.8,-43.2,9.14,0.28,0.67,8307
-0.3675,-0.0467,9.6426,-0.1297,-0.0442,9.8057,0.0171,-0.011,0.0086,-2.9,21.7,-43.4,9.25,0.25,0.74,8409
-0.9541,-0.2059,10.088,-0.148,-0.0137,9.8055,0.0159,-0.0134,0.0403,-2.8,21.7,-43.3,9.44,0.08,0.86,8512
-1.634,-0.1089,10.094,-0.2859,0.2565,9.7991,0.4496,0.1979,0.766,-2.6,21.5,-43.4,9.91,-0.52,1.22,8614
-0.8116,0.6201,9.6558,-0.5094,0.9024,9.7518,0.4374,0.2541,1.609,-1.2,19.9,-43.8,7.52,-4.31,2.7,8715
-0.5614,0.7602,8.5748,-0.3636,1.1382,9.7336,0.1747,0.1124,2.0159,2.9,16.2,-44.2,358.4,-6.66,3.14,8817
-0.48,0.3759,9.0692,-0.0333,1.0786,9.7471,-0.0623,-0.099,2.1356,5.7,12.8,-45.4,343.93,-6.54,1.02,8920
0.753,0.3795,10.5548,0.1822,0.6716,9.7819,-0.4349,0.1955,2.1002,7.6,10.9,-45.4,327.82,-3.93,-1.07,9021
0.1915,0.7242,9.1806,-0.0951,0.3535,9.7998,-0.2871,-0.0367,1.8998,11.3,6.7,-44.9,309.22,-2.07,0.56,9123
-0.1365,-0.7685,9.7396,-0.0052,-0.133,9.8057,-0.6353,-0.1381,1.7691,12.6,4.9,-44.4,291.46,-0.05,0.23,9225
0.8308,-0.255,10.1718,-0.1581,-0.2616,9.8019,-0.1234,0.5082,1.3195,14.2,2.7,-43.9,277.8,1.53,0.92,9327
-1.4329,-0.0096,8.7424,-0.7216,-0.1835,9.7783,0.6402,0.0929,0.0745,15.7,0.3,-42.9,266.31,1.07,4.22,9429
-0.9529,0.4142,11.5197,-0.5482,0.1239,9.7905,-0.0965,-0.3946,0.3653,16.7,-1.9,-42.5,264.31,-0.72,3.2,9531
0.4178,0.4884,8.5557,-0.4094,0.6035,9.7795,0.2468,-0.2981,0.0538,17.2,-3.6,-42.1,262.91,-2.86,2.72,9634
1.0355,0.6668,8.4539,-0.0785,0.6689,9.7835,0.259,0.2334,0.3775,16.6,-5.5,-42.7,263,-3.91,0.46,9735
0.3843,-0.1425,11.746,0.4844,0.5174,9.781,-0.463,-1.1655,-0.0941,15.8,-6.4,-43.2,258.21,-3.23,-1.64,9837
-0.3472,0.4908,8.8155,0.059,0.7029,9.7812,0.033,0.5461,-0.3604,14.4,-6.9,-44,255.74,-4.07,-1.72,9940
-1.1636,0.1365,9.7683,-0.4275,0.4543,9.7868,-0.3262,0.2847,-0.3054,14.7,-6.6,-43.8,249.34,-2.66,2.5,10041
-0.182,-0.0335,10.1131,-0.1513,0.089,9.8051,0.325,0.4203,-0.0953,15.3,-5.7,-43.5,248.75,-0.78,1.45,10144
-0.0431,0.103,9.6091,-0.1925,0.4823,9.7929,0.38,-0.0489,-0.0183,16,-5,-42.9,257.91,-2.28,0.95,10245
-1.2366,0.1293,9.2608,-0.2494,0.5195,9.7897,0.0599,-0.1869,0.0073,16.2,-4.4,-42.7,263.51,-3.04,1.46,10348
0.2286,1.0295,10.2747,-0.0456,0.5742,9.7897,0.0452,0.1002,-0.1466,15.8,-4.8,-42.9,261.12,-3.36,0.27,10450
0.152,0.6656,9.6163,0.0895,0.7792,9.7752,0.2786,-0.2676,-0.1014,15.7,-4.9,-43,263.31,-4.14,-0.1,10551
-0.4812,0.1724,10.1083,0.0542,0.7941,9.7743,-0.0122,0.0525,-0.0244,15.2,-5.3,-43.1,264.35,-4.64,-0.32,10653
0.0575,1.0499,8.503,0.1249,0.9658,9.7582,-0.0037,-0.1026,-0.0147,15.1,-5.6,-43.2,263.23,-5.55,-0.53,10756
-0.0766,0.8691,9.8665,0.0312,0.8283,9.7716,-0.1503,0.1258,-0.0684,14.9,-6.1,-43.5,262.09,-5.15,-0.43,10857
-0.1688,0.9637,9.256,-0.081,0.7617,9.7767,-0.0709,0.1918,-0.0367,15,-6.1,-43.6,260.1,-4.45,0.47,10960
-0.2921,0.7997,9.6235,0.0041,0.7777,9.7758,-0.0501,0.0782,0.0257,15.1,-5.8,-43.2,260.28,-4.55,-0.02,11061
-0.1652,0.7614,9.9503,0.0483,0.7454,9.7782,0.0147,-0.0501,0.0452,15.1,-5.6,-43.1,259.86,-4.36,-0.28,11163
-0.1269,0.7446,9.7037,0.0695,0.7464,9.778,-0.0037,-0.0354,0.0171,15,-5.6,-43.3,259.93,-4.37,-0.41,11266
0.0994,1.0618,9.3506,0.0972,0.7844,9.7747,0.0232,-0.1063,0.0098,14.8,-5.6,-43.6,260.9,-4.59,-0.57,11367
-0.1149,1.0786,9.6103,0.1536,0.7996,9.7728,0.0684,-0.0684,0.0342,14.5,-5.7,-43.8,261.26,-4.68,-0.9,11470
0.091,1.3647,9.7217,0.1637,0.8405,9.7692,-0.0073,0.0183,0.0831,14.5,-5.8,-43.9,261.78,-4.86,-0.98,11571
0.2227,1.4521,9.8043,0.1626,0.8689,9.7667,-0.1307,0.0281,0.0733,14.4,-6,-44,261.89,-5.08,-0.95,11675
0.231,1.33,9.73,0.1379,0.8616,9.7678,-0.011,-0.0024,0.1234,14.4,-6.3,-43.8,261.59,-5,-0.8,11775
0.4154,1.1923,9.7671,0.1691,0.9472,9.7593,0.1063,0.0061,0.1869,14.3,-6.4,-43.7,262.28,-5.22,-0.9,11878
0.237,0.7889,10.471,0.2689,0.9611,9.7557,-0.022,-0.1136,0.0342,14.3,-6.8,-43.9,260.28,-5.77,-1.38,11980
0.2346,0.8499,9.6379,0.3598,1.0144,9.7474,0.077,-0.0929,0.099,14,-7.4,-43.7,261.02,-5.94,-2.11,12082
-0.0527,0.5638,10.1742,0.4215,0.9622,9.7502,-0.0672,0.0269,0.1051,13.6,-7.8,-43.8,256.86,-5.63,-2.48,12184
0.0239,0.8128,9.9491,0.3699,0.9143,9.7569,0.0159,0.055,0.1319,13.4,-7.9,-43.9,255.06,-5.35,-2.17,12291
0.0491,0.7973,10.0545,0.3213,0.9223,9.7579,-0.0806,0.1258,0.1014,13.4,-8.2,-44.1,255,-5.4,-1.89,12388
-0.0383,1.1001,9.3194,0.2473,1.0007,9.7523,0.1442,-0.0941,0.1466,13.5,-8.3,-43.6,256.35,-5.66,-1.38,12489
0.0898,1.4653,9.8641,0.334,1.0431,9.7453,-0.0489,-0.0819,-0.0525,13.6,-8.9,-43.3,254.02,-6.11,-1.96,12591
0.0132,2.0027,9.0357,0.2779,0.8997,9.7613,-0.1466,0.0428,-0.0916,13.6,-8.8,-43,252.17,-5.43,-1.78,12693
-0.0563,1.8854,9.183,0.2701,0.8086,9.7695,-0.0648,-0.0012,-0.1197,13.6,-8.4,-43.5,253.61,-4.71,-1.61,12795
-0.3124,1.8938,8.9052,0.2769,0.8429,9.7664,0.0073,-0.055,-0.0757,13.7,-7.5,-43.8,258.04,-4.93,-1.62,12898
-0.0215,1.6819,9.1566,0.3288,0.9506,9.7549,0.0806,-0.0696,0.0342,13.7,-7,-44.1,259.1,-5.29,-1.79,13000
0.5818,0.3615,9.0585,0.392,1.0613,9.7412,0.0195,-0.1173,-0.0733,13.5,-6.9,-44.2,261.83,-6.21,-2.3,13102
0.6321,0.7362,8.5425,0.3384,1.0064,9.749,0.3836,0.0403,0.1295,13.4,-7,-44.3,260.24,-5.89,-1.99,13203
1.5299,0.7877,9.663,0.4329,1.0293,9.7429,-0.1173,-0.1784,0.0379,13.3,-7.2,-44.1,261.23,-6.21,-2.09,13305
0.7506,1.1732,9.1207,0.4175,0.8929,9.757,-0.0452,0.0354,-0.0819,13.2,-7.2,-44,258.77,-5.3,-2.51,13407
0.5698,1.4892,9.4379,0.4467,0.7918,9.7644,-0.1503,-0.044,-0.2016,13.1,-6.9,-43.7,256.95,-4.63,-2.62,13510
0.1772,1.5622,9.6678,0.4168,0.7612,9.7682,-0.0452,0.0538,-0.1772,13.1,-6.2,-43.7,259.95,-4.39,-2.64,13612
-0.7039,0.2969,11.4958,0.4161,0.8306,9.7626,0.1124,-0.0305,-0.0232,13.1,-5.4,-43.6,264.98,-4.86,-2.44,13713
0.9912,1.1097,7.355,0.4107,1.1304,9.7326,-0.2798,-0.496,-0.0049,13.2,-5.3,-43.6,268.63,-6.1,-2.23,13816
0.0215,1.3994,7.282,0.5886,1.1381,9.7226,0.3176,0.1564,0.1723,13.1,-5.8,-43.4,264.21,-6,-3.12,13918
-0.1137,1.2306,8.9064,0.6694,1.0721,9.7249,-0.1038,-0.055,0.0489,12.8,-6.2,-43.3,265.4,-6.41,-3.72,14020
-0.3005,1.5395,9.6031,0.6319,1.0179,9.7332,-0.0721,0.2126,-0.0855,12.2,-6.5,-43.8,264.26,-5.96,-3.71,14121
0.0156,1.7071,9.6486,0.5047,1.114,9.7301,-0.0134,0.1869,-0.2053,12.1,-6.4,-44.2,265.83,-6.52,-2.97,14223
-0.0455,0.9673,10.1335,0.3568,1.1988,9.7266,0.1613,0.0648,-0.1955,12.4,-6.1,-44.1,267.33,-7.02,-2.1,14325
0.7434,-0.2227,9.8893,0.3565,1.162,9.731,-0.3665,-0.0452,-0.3738,12.7,-5.9,-43.8,268.32,-7.29,-2.05,14427
0.3292,0.6632,8.3414,0.192,1.0673,9.7465,-0.2053,-0.0403,-0.1857,13,-5.1,-43.3,268.68,-6.25,-1.13,14530
0.2502,1.0056,8.7005,0.1231,0.9182,9.7628,-0.0538,0.0916,-0.0819,13.1,-4.4,-43.1,269.82,-5.28,-0.84,14632
-0.103,1.1672,8.9388,0.1673,0.8407,9.7691,-0.077,-0.1381,-0.0354,13.6,-3.5,-42.9,273.02,-5.03,-0.71,14733
0.2286,1.1468,10.2436,0.2077,0.7667,9.7744,0.0648,-0.0037,0.171,13.7,-3.1,-42.9,271.54,-4.55,-1.2,14836
-0.0455,0.8164,11.8597,0.2709,0.8882,9.7626,0.1588,-0.1161,0.2492,13.4,-3,-42.8,273.52,-5.2,-1.59,14937
-0.3579,0.243,8.7759,0.3962,1.0853,9.7383,0.1478,0.0257,0.2175,13.1,-3.5,-42.8,276.9,-6.41,-2.09,15040
0.2286,0.8906,7.5621,0.6165,1.0088,9.7351,0.1283,-0.182,0.2028,12.4,-4.3,-42.8,270.38,-5.54,-3.29,15142
-0.0012,1.1025,9.2799,0.5378,0.8005,9.7591,-0.3262,0.2407,0.0269,12,-4.9,-43,263.9,-4.68,-3.15,15244
0.0192,1.5838,8.5281,0.4902,0.8561,9.7569,0.0843,0.259,0.0183,11.6,-4.8,-43.3,264.81,-5.01,-2.88,15346
-0.012,1.0786,8.7305,0.3952,1.0141,9.7461,0.1466,0.088,-0.1271,11.8,-5.1,-43.3,267.58,-5.94,-2.32,15448
-0.0072,0.51,11.7986,0.47,1.0679,9.737,0.3433,-0.0232,-0.0977,12.1,-5.3,-43.1,267.73,-5.98,-2.52,15550
0.6009,-0.2227,11.2025,0.5187,1.1268,9.7279,-0.2468,-0.0134,-0.303,12.2,-5.9,-42.9,265.59,-6.6,-3.05,15652
0.17,0.1281,9.104,0.4133,0.8206,9.7635,-0.2712,-0.0049,-0.2236,12.3,-5.7,-43,260.03,-4.8,-2.42,15753
0.3256,1.0523,8.2959,0.3581,0.5557,9.7843,-0.1515,0.0721,-0.0953,12.4,-4.7,-42.8,260.08,-3.51,-2.23,15855
0.6237,1.2893,9.4523,0.3741,0.489,9.7873,-0.0489,-0.0623,-0.0684,12.7,-3.5,-42.7,266.56,-2.86,-2.19,15960
0.2634,0.9421,9.991,0.4311,0.6009,9.7787,0.2053,-0.077,0.0586,12.8,-3,-42.6,267.44,-3.16,-2.39,16059
0.2705,0.3998,10.6111,0.5966,0.9724,9.7401,0.4337,-0.1295,0.1686,12.9,-3.2,-42.8,272.55,-5,-3.25,16161
0.5842,0.17,8.8454,0.7721,0.9077,9.734,0.5009,0.0037,0.1258,12.6,-4.2,-43.3,269.61,-5.31,-4.54,16263
0.1724,0.4657,9.013,0.7458,1.0373,9.7231,-0.1332,0.0379,-0.0049,12.3,-5.1,-43.3,268.75,-6.35,-4.45,16365
0.2191,0.9708,8.1008,0.7426,1.0448,9.7225,-0.0208,0.0037,-0.0269,12.3,-5.5,-43.3,268,-6.07,-4.31,16467
0.5734,1.8208,8.5114,0.7655,1.1185,9.7125,0.0232,-0.1026,-0.0696,12.4,-5.6,-43.3,265.61,-6.55,-4.51,16570
0.2406,0.929,11.2204,0.7358,1.208,9.7041,0.0819,0.1038,-0.171,12.6,-5.6,-43.4,266.72,-6.89,-4.29,16671
0.9086,0.8823,10.252,0.6829,1.3029,9.6957,-0.0134,0.0342,-0.2468,12.8,-5.8,-43.6,269.19,-7.65,-4.14,16773
0.3519,0.1999,10.5381,0.4602,1.0276,9.7418,0.0904,0.0843,-0.0367,13.2,-5.4,-43.5,268.36,-6.16,-2.99,16876
0.1305,0.3675,9.8282,0.5166,0.9423,9.7476,-0.2566,-0.1723,-0.055,13.9,-4.6,-43.2,266.75,-5.51,-3.03,16977
0.091,0.8906,8.77,0.4929,0.8403,9.7581,-0.0208,0.099,0.0892,14.1,-3.7,-43.3,268.62,-4.89,-3,17079
0.3256,1.1085,9.5541,0.5704,0.8642,9.7518,-0.0098,-0.0611,0.2211,14.3,-3.2,-43.3,272.51,-5.06,-3.35,17181
0.4717,0.5447,10.9056,0.6492,0.894,9.7442,0.0562,-0.0525,0.259,14.1,-3.1,-43.7,273.15,-5.23,-3.81,17283
1.1384,0.8368,9.7659,0.6233,0.9989,9.7357,0.1283,0.1014,0.3433,13.9,-4,-43.8,271.37,-5.85,-3.66,17386
0.6009,0.6177,9.6019,0.7862,0.8906,9.7344,0.0501,-0.1564,0.1234,13.7,-4.4,-44,269.66,-5.21,-4.62,17488
-0.31,0.5004,8.5006,0.6979,0.8363,9.746,-0.0794,-0.1038,-0.0281,13.5,-4.7,-44.1,265.57,-4.89,-4.1,17589
0.0503,1.2737,7.8494,0.6669,0.9294,9.7397,0.2077,0.1295,0.0513,13.5,-4.6,-44,266.2,-5.14,-4.04,17692
0.2837,1.415,9.0237,0.5967,1.0085,9.7364,0.1222,0.1576,-0.0794,13.5,-4.5,-44.1,270.92,-5.68,-3.77,17793
0.2777,0.6117,10.647,0.6697,1.1158,9.7199,0.43,0.0134,-0.1429,13.6,-4.6,-44.1,269.72,-6.53,-3.94,17896
0.4058,-0.3795,12.6055,0.6876,1.0738,9.7234,-0.4838,-0.099,-0.3274,13.5,-4.7,-44.4,269.09,-6.29,-4.05,17998
0.3531,0.2239,8.6718,0.6812,0.8229,9.7483,-0.2334,-0.1637,0.0037,13.5,-4.3,-44.4,270,-5.31,-3.73,18100
0.3376,0.9014,8.5545,0.662,0.7023,9.759,-0.0672,0.0086,-0.0696,13.3,-3.4,-44.5,270.8,-4.29,-3.94,18202
0.5387,1.2965,8.7412,0.6593,0.7292,9.7573,0.0538,-0.0696,0.033,13.3,-2.5,-44.6,274.57,-4.26,-3.87,18304
0.6644,1.0068,9.7384,0.7262,0.8573,9.7421,0.1527,-0.0208,0.0867,13.1,-2.3,-44.3,275.41,-4.72,-4.24,18406
0.4645,0.8188,9.9383,0.8324,1.0311,9.7167,0.2773,0.0147,0.2187,12.9,-3,-44.1,275.16,-6.04,-4.9,18508
0.8559,0.1065,11.7711,0.8926,0.9017,9.7242,-0.0342,0.0293,-0.0232,12.6,-3.5,-44.1,274.01,-5.6,-5.07,18609
0.2562,0.5303,8.9579,0.9162,0.9453,9.7179,0.0586,-0.0941,0.0696,12.3,-4.2,-44.5,270.47,-5.53,-5.39,18711
0.5938,0.899,9.0956,0.9073,0.7444,9.7362,-0.11,-0.0623,0.0684,12.3,-4.2,-44.9,268.08,-4.52,-5.29,18813
0.3005,1.3132,9.2129,0.8876,0.7998,9.7336,0.1906,-0.099,0.0635,12.2,-4.1,-45.2,268.5,-4.68,-5.21,18916
0.3484,0.9074,10.1047,0.8687,0.9318,9.7236,0.0599,0.1075,-0.0709,12,-4,-45.2,270.32,-5.35,-5.23,19018
1.6125,1.0175,9.3374,0.9066,1.2523,9.684,0.38,-0.0354,-0.0354,12,-4.5,-44.9,274.43,-6.85,-5.23,19119
-0.0383,-0.2646,12.5935,0.6805,0.9492,9.7369,0.1698,0.2602,-0.0122,12.2,-5,-44.7,267.34,-5.56,-4.56,19221
0.7123,0.668,9.5361,0.6324,0.8822,9.7464,-0.0452,0.0183,0.0318,12.6,-4.9,-44.4,266,-5.16,-3.71,19324
0.2789,0.8128,8.9854,0.5363,0.759,9.7625,-0.1967,0.2016,0.0623,13,-4.2,-44.4,267.61,-4.44,-3.14,19425
0.4992,1.2749,8.855,0.4355,0.7388,9.7691,-0.0354,0.0183,0.1454,13.6,-3.8,-44.3,267.4,-4.32,-2.55,19527
0.2861,0.7973,10.4722,0.4756,0.7126,9.7692,0.1955,-0.2077,0.2321,13.9,-3.7,-44.2,266.87,-4.12,-2.73,19630
0.0359,0.5686,9.5864,0.6667,0.9323,9.7394,0.314,-0.0721,0.3042,13.8,-4.4,-44,270.34,-5.46,-3.92,19732
-0.2083,-0.1173,10.7332,0.8018,0.8351,9.7381,0.1442,-0.0611,0.1759,13.6,-5,-44.3,265.04,-4.65,-4.62,19833
-0.0383,0.4142,9.0321,0.8118,0.7667,9.7429,-0.3005,0.1918,-0.0489,12.9,-5.7,-44.4,260.97,-4.48,-4.76,19935
0.1652,1.0427,9.3087,0.7309,0.6483,9.7579,-0.044,0.0098,0.0525,12.7,-5.8,-44.5,259.18,-3.84,-4.38,20038
0.2382,1.4401,9.6019,0.6383,0.7145,9.7597,0.0159,0.0232,-0.0696,12.7,-5.6,-44.3,259.71,-4.12,-3.84,20140
-0.1113,0.7733,10.8613,0.5666,0.7992,9.7576,0.1356,0.0367,-0.182,13.1,-5.3,-44.1,264.61,-4.67,-3.32,20241
1.421,0.0311,9.3003,0.7286,0.8657,9.7412,-0.6671,-0.066,-0.358,13.2,-5.4,-44,267.01,-5.53,-3.82,20344
-0.1664,0.8978,6.5314,0.4761,0.6094,9.7761,0.1136,0.3238,-0.1393,13.4,-4.8,-43.9,261.36,-3.56,-2.79,20445
0.5722,0.7614,10.1263,0.5419,0.4754,9.7801,-0.0403,-0.0489,0.0195,13.5,-4.2,-43.7,263.39,-2.78,-3.17,20547
-0.0658,0.8212,9.019,0.5458,0.5179,9.7777,0.0037,0.0269,-0.0061,13.6,-3.4,-43.6,267.21,-2.91,-3.27,20649
0.4717,0.8224,10.2328,0.5628,0.6229,9.7707,-0.0073,0.011,0.0318,13.7,-2.8,-43.9,268.53,-3.42,-3.33,20751
0.4441,0.6835,11.5329,0.67,0.7952,9.7514,0.1527,-0.2505,0.2114,13.5,-3.1,-44,271.66,-4.65,-3.93,20853
0.4788,-0.4681,10.9678,0.8772,0.704,9.7419,-0.336,-0.3409,0.2443,13.3,-3.6,-44.3,268.37,-4.71,-4.45,20956
0.4657,0.8847,7.8889,0.9797,0.6708,9.7345,0.1637,-0.0428,0.3983,12.7,-4.2,-44.3,266.42,-3.92,-5.75,21058
0.6249,0.5327,8.4623,1.0456,0.5016,9.7378,-0.0134,0.0428,0.1796,12.1,-4.8,-44.6,260.73,-2.99,-6.09,21160
1.0175,0.9182,8.1702,1.0911,0.5527,9.7301,0.0122,0.0244,-0.0086,11.8,-5,-44.6,261.11,-3.09,-6.42,21261
0.6416,0.8224,9.7169,0.9694,0.6288,9.7383,0.1234,0.1466,-0.3543,11.5,-5.2,-44.4,261.6,-3.43,-6.04,21363
1.0056,0.31,10.6865,0.8582,0.7091,9.7433,0.0122,0.0672,-0.3897,11.7,-5.2,-44.3,263.17,-4.15,-5.03,21465
0.1125,-0.3639,11.4527,0.6708,0.5082,9.7705,-0.16,0.16,-0.2566,12.1,-4.8,-44.1,261.6,-3.65,-4.31,21568
0.2741,0.1484,9.7671,0.6087,0.4064,9.7793,-0.1271,0.0147,-0.1136,12.8,-3.7,-43.9,261.99,-2.37,-3.56,21669
-0.2729,0.8368,8.0852,0.5638,0.3669,9.7836,-0.0415,0.088,-0.1368,13.1,-2.9,-43.9,264.91,-2.14,-3.3,21771
0.1269,0.8595,10.2017,0.5,0.3164,9.7888,-0.055,0.0464,-0.0098,13.5,-1.9,-43.9,267.87,-1.85,-2.92,21873
0.2442,0.7171,10.0102,0.3957,0.4532,9.7882,0.1674,0.0941,0.1881,13.7,-1.7,-44,269.26,-2.37,-2.47,21975
-0.1915,0.243,9.5696,0.3087,0.6786,9.7783,0.4191,0.193,0.1564,14.1,-2,-43.6,273.78,-3.97,-1.81,22077
-0.3962,0.3496,9.1626,0.2924,0.6284,9.7821,0.1393,-0.0806,0.1124,14.6,-2.9,-43.4,269.06,-3.67,-1.71,22179
-0.2418,0.4609,9.6007,0.4419,0.5423,9.7817,-0.3091,0.0257,-0.0098,14.7,-3.9,-43.3,264.41,-3.17,-2.59,22281
-0.1329,1.2546,8.8562,0.4713,0.5622,9.7792,0.0183,0.0623,0.0684,14.6,-3.9,-43.7,264.74,-3.21,-2.75,22384
0.4082,1.8184,9.0692,0.4717,0.6408,9.7743,0.1417,-0.0611,0.0367,14.3,-4,-43.7,265.87,-3.75,-2.76,22485
-0.0838,1.0175,10.8362,0.4048,0.6688,9.7754,0.1662,0.0122,-0.1478,14.3,-3.9,-43.4,266.01,-3.91,-2.37,22587
0.6285,-0.5195,11.1618,0.5069,0.7812,9.7623,-0.4838,0.0428,-0.4117,14.3,-4.1,-43.2,267.79,-4.57,-2.97,22689
0.2155,0.3938,8.0062,0.4302,0.5656,9.7809,0.1112,0.0586,-0.1723,14.4,-3.6,-43.2,263.95,-3.15,-2.31,22792
0.0718,0.4094,8.1702,0.5085,0.4196,9.7845,0.0415,-0.0415,-0.066,14.3,-2.6,-43.4,265.65,-2.39,-2.97,22894
0.0503,1.0175,8.2217,0.4655,0.4017,9.7874,0.0806,0.0391,0.0599,14.3,-1.5,-43.3,272.62,-2.35,-2.72,22996
-0.1616,0.8296,10.2089,0.3899,0.3447,9.7928,-0.1527,0.0709,0.0415,14.3,-1.1,-43.2,271.79,-2.01,-2.28,23098
0.2705,0.6033,12.6079,0.4522,0.3793,9.7889,0.1356,-0.077,0.2541,14.4,-1.1,-43.3,272.04,-2.11,-2.42,23199
-0.1963,-0.7422,11.394,0.5723,0.3509,9.7836,0.1026,-0.0904,0.2114,14.3,-1.4,-43.1,271.82,-2.06,-3.13,23302
0.1712,0.1927,8.8681,0.7076,0.4436,9.771,-0.1295,0.0635,0.0305,13.9,-1.9,-43.5,269.65,-2.59,-4.14,23403
0.0886,0.6847,8.7915,0.6335,0.4056,9.7778,0.0452,0.0367,0.0672,13.6,-2.1,-43.8,268.72,-2.16,-3.77,23505
0.2682,1.1133,9.0202,0.5936,0.5237,9.7746,0.0208,-0.0037,-0.055,13.5,-2.6,-44.2,267.61,-3.06,-3.48,23607
-0.1856,0.5746,9.9491,0.5672,0.5519,9.7747,0.0916,-0.1332,-0.1662,13.5,-2.8,-44,268.03,-3.23,-3.32,23710
1.1097,-0.5195,10.9954,0.6855,0.6487,9.7611,0.0892,-0.0929,-0.1405,13.6,-3.1,-44.2,269.48,-3.79,-4.02,23811
0.8499,0.5435,7.3933,0.4575,0.4928,9.7836,0.303,0.1026,-0.0977,13.7,-2.6,-44.1,267.07,-2.88,-2.68,23913
0.4274,0.2909,9.8414,0.3886,0.3431,9.7929,0.0684,0.1552,-0.1222,13.9,-2.2,-43.8,268.25,-2,-2.27,24015
0.1269,0.9673,7.932,0.2581,0.4038,9.7949,0.0415,0.0709,-0.0782,14.5,-1.3,-43.4,272.2,-2.18,-1.62,24117
0.0156,0.9218,9.7827,0.3229,0.4059,9.7929,-0.0684,-0.0819,0.0525,14.9,-1.1,-43.2,272.62,-2.35,-1.76,24219
0.4405,0.8475,12.1925,0.4679,0.4935,9.783,0.1405,-0.0831,0.2077,15,-1,-43.5,273.78,-2.88,-2.74,24322
-0.2286,-0.4489,11.485,0.5243,0.5018,9.7798,-0.088,-0.1759,0.077,14.7,-1.3,-43.5,274.77,-3.29,-2.75,24424
0.2813,0.5962,8.0349,0.5963,0.5457,9.7733,0.171,-0.0855,0.1368,14.3,-1.7,-43.6,271.36,-3.18,-3.39,24525
-0.2442,0.7386,8.2025,0.5178,0.4076,9.7845,0.0415,0.2382,-0.0086,14,-1.8,-43.6,269.29,-2.38,-3.03,24628
-0.0395,1.2246,8.4898,0.4212,0.4986,9.7849,0.182,0.1246,0.1014,14.1,-1.9,-43.8,270.75,-2.91,-2.47,24729
-0.1556,0.8727,10.8948,0.3,0.5349,9.7875,-0.0916,0.121,-0.0367,14.3,-2,-43.5,271.14,-3.1,-1.75,24832
0.486,0.3819,10.386,0.3656,0.706,9.7744,0.1454,-0.1295,-0.1698,14.7,-2.4,-43.2,273.65,-4.13,-2.14,24934
-0.3148,-0.4944,11.9279,0.2963,0.4838,9.7902,0.1674,-0.1063,-0.0965,14.9,-2.4,-42.9,271.55,-3.3,-2.01,25036
0.1353,0.1233,9.1423,0.3389,0.5087,9.7876,-0.16,-0.0098,-0.0415,15,-2.1,-43,270.71,-2.97,-1.98,25137
-0.4729,0.7614,8.7053,0.3046,0.4159,9.7931,-0.0269,0.0073,0.0134,14.9,-1.3,-42.8,272.82,-2.43,-1.78,25240
0.0575,1.3096,8.4611,0.2886,0.45,9.7921,-0.0648,0.0183,0.1552,15,-1.1,-42.7,273.35,-2.63,-1.69,25341
-0.0718,0.7566,12.2499,0.398,0.6157,9.7792,0.4386,0.0953,0.303,15,-1.3,-43,274.13,-2.96,-1.99,25443
-0.9014,-0.7362,12.3361,0.4369,0.6055,9.7782,-0.3641,-0.1967,0.0941,15.1,-2.3,-43.4,272.08,-3.54,-2.56,25546
0.1736,0.7793,8.5234,0.514,0.6922,9.7687,0.1197,-0.2908,0.2334,14.9,-2.9,-43.5,269.94,-4.05,-3.01,25647
0.2119,0.8835,8.8753,0.5319,0.5998,9.7738,0.0281,0.0171,0.0586,14.6,-3.6,-43.7,265.54,-3.51,-3.11,25750
-0.3148,1.1241,8.6479,0.4452,0.6608,9.7742,0.1124,0.0929,0.0061,14.6,-4,-43.8,266.38,-3.86,-2.61,25852
-0.3675,0.9697,9.6462,0.3553,0.7082,9.7746,0.0977,-0.0086,-0.1063,14.7,-4.2,-43.8,266.47,-3.91,-2.22,25954
0.7075,0.231,10.6949,0.4005,0.8337,9.7629,-0.0696,-0.1038,-0.11,15,-4.6,-43.2,265.22,-4.86,-2.18,26056
-0.1772,-0.0144,10.9247,0.2435,0.6051,9.7849,-0.3567,0.303,-0.1576,15.1,-4.5,-43,265.08,-3.5,-1.6,26158
0.012,0.3184,10.0748,0.3933,0.5027,9.7859,-0.2676,-0.2358,-0.0586,15.2,-3.8,-43,263.77,-2.94,-2.3,26259
-0.2035,0.8619,8.5712,0.4235,0.4564,9.7869,0.0562,-0.0757,0.0525,15.1,-3.1,-42.8,266.51,-2.67,-2.48,26362
0.0898,0.9972,9.5205,0.4527,0.4923,9.7838,0.0782,-0.0232,0.1674,14.9,-2.9,-42.8,267.07,-2.89,-2.64,26463
0.0299,0.5004,11.9985,0.5002,0.5838,9.7765,0.1161,-0.0415,0.1429,14.6,-3,-42.8,268.39,-3.41,-2.93,26565
-0.1041,-0.7781,13.4482,0.5841,0.5328,9.7747,-0.3176,-0.0037,0.1845,14.5,-3.6,-43.2,265.98,-3.77,-3.23,26670
0.097,0.6333,8.0553,0.6483,0.6441,9.764,-0.2053,-0.0721,-0.0183,14.4,-4.3,-43.4,265.8,-3.77,-3.8,26769
-0.267,0.4968,8.7293,0.6321,0.3944,9.7783,-0.226,0.0782,-0.0452,14.3,-4.6,-43.7,259.52,-2.52,-3.69,26871
0.1006,1.1468,8.7484,0.5869,0.3761,9.7818,0.0171,0.0538,0.0428,14.1,-4.3,-43.9,261.96,-2.2,-3.43,26973
0.1281,0.7506,11.3784,0.5578,0.4218,9.7817,0.2712,-0.0061,-0.1503,14.1,-4.2,-43.8,262.06,-2.25,-3.29,27075
0.3687,-0.1389,10.252,0.5498,0.6401,9.7703,0.1735,0.0037,-0.1429,14.3,-4.2,-43.9,265.91,-3.74,-3.22,27178
0.0419,0.328,10.0066,0.4393,0.578,9.7797,0.1869,0.0232,0.1148,14.4,-4.2,-43.8,264.15,-3.12,-2.62,27280
-0.0431,0.2239,9.1913,0.5565,0.4207,9.7818,0.011,0.0709,0.0098,14.4,-4.1,-43.9,262.58,-2.46,-3.26,27381
0.1125,0.9864,8.3187,0.5106,0.4212,9.7843,0.0269,-0.011,-0.0122,14.5,-3.8,-43.6,262.93,-2.46,-2.99,27483
-0.1065,0.8033,10.4615,0.4777,0.4186,9.7861,-0.0232,0.0635,-0.0195,14.6,-3.6,-43.4,262.54,-2.38,-2.92,27586
0.0239,0.5351,11.2791,0.5279,0.6095,9.7734,0.2724,-0.0635,0.1503,14.8,-3.7,-43.2,265.46,-3.56,-3.09,27687
0.5734,-0.419,12.0141,0.6616,0.6538,9.7624,-0.0415,-0.0855,0.1087,14.7,-4.2,-43,266.84,-4.12,-3.43,27790
-0.0072,0.4944,7.908,0.746,0.7485,9.7495,0.1845,-0.1747,0.077,14.2,-5,-43,264.06,-4.38,-4.38,27891
-0.0263,0.8332,8.4491,0.716,0.5651,9.7641,-0.0195,-0.0782,0.0049,14,-5.2,-43.4,261.42,-3.3,-4.19,27993
0.0874,1.4353,8.5665,0.6683,0.5349,9.7692,-0.044,0.044,-0.0892,13.9,-5,-43.7,261.16,-3.14,-3.96,28095
-0.492,0.4178,11.5053,0.5697,0.5175,9.7764,-0.0684,0.0782,-0.2578,14.1,-4.6,-44,260.67,-3.02,-3.33,28197
0.1173,0.7051,10.72,0.5823,0.6948,9.7647,0.2908,-0.088,-0.1344,14.2,-4.2,-44,265.42,-3.56,-3.12,28300
-0.0622,-0.4812,12.542,0.6172,0.4636,9.7762,-0.2529,0.0892,-0.2859,14.3,-3.8,-43.7,263.32,-2.71,-3.61,28401
0.6345,0.4597,9.2584,0.7023,0.4631,9.7705,-0.1185,-0.044,-0.0965,14.2,-3,-43.6,266.75,-2.71,-4.11,28503
-0.2322,0.838,8.9208,0.633,0.3457,9.7801,-0.0721,0.1332,-0.121,14.1,-2.1,-43.7,268.36,-2.02,-3.7,28606
0.1413,1.0499,8.6838,0.6171,0.3757,9.78,0.1075,-0.0672,0.066,14.2,-1.6,-43.7,268.8,-2.2,-3.61,28708
0.1796,0.8272,11.1151,0.6359,0.5576,9.7701,0.3861,-0.0892,0.2187,14.2,-1.5,-44,274.91,-3.26,-3.72,28809
0.5291,-0.4298,10.5046,0.8162,0.6799,9.7489,-0.0257,-0.1503,0.1515,14.1,-1.9,-43.9,274.35,-4.41,-4.14,28912
0.3687,0.8009,7.5848,0.8368,0.6508,9.7492,0.1808,-0.1491,0.1515,13.8,-2.5,-43.6,271.83,-3.44,-4.77,29014
-0.0168,0.7709,8.5976,0.7927,0.4875,9.7624,-0.0012,-0.0037,0.0257,13.6,-3.1,-43.5,266.97,-2.85,-4.64,29116
-0.0431,1.3731,8.1307,0.7501,0.5651,9.7616,0.0892,0.1148,0.0415,13.5,-3,-43.8,267.7,-3.08,-4.43,29217
-0.1065,0.9421,10.0293,0.7519,0.6735,9.7546,0.0904,0.0037,-0.0709,13.5,-3,-43.8,269.01,-3.61,-4.54,29319
0.3364,0.6476,10.8397,0.8006,0.839,9.7378,0.1723,-0.1662,-0.0354,13.5,-3.1,-44,271.18,-4.5,-4.63,29421
0.6021,0.0826,10.8122,0.7119,0.7364,9.753,0.1173,-0.0195,-0.0098,13.4,-3.5,-43.9,271.02,-4.39,-4.38,29524
0.5914,0.4381,10.0137,0.7262,0.6556,9.7577,-0.2957,-0.0623,-0.11,13.5,-3.4,-43.9,269.57,-3.83,-4.26,29626
-0.1844,0.814,8.1558,0.5761,0.5174,9.776,-0.1124,0.0696,-0.0159,13.7,-2.9,-43.5,267.31,-3.02,-3.37,29728
0.4118,1.0594,9.681,0.503,0.4254,9.7845,-0.0183,0.011,0.1723,14,-2.2,-43.3,269.41,-2.49,-2.94,29829
-0.0311,0.6991,10.0975,0.482,0.5003,9.782,0.1002,0.0305,0.171,14.2,-1.9,-43.2,270.14,-2.76,-2.73,29931
0.3867,-0.8523,10.9044,0.6624,0.7035,9.7589,0.0293,-0.2737,0.1112,14.4,-2.4,-43.1,273.44,-4.11,-3.88,30033
0.1963,0.1149,9.3254,0.8516,0.5661,9.7532,0.3115,-0.1918,0.226,14,-2.9,-43.7,268.28,-3.31,-4.99,30136
0.006,0.1317,8.8346,0.9166,0.4292,9.7543,-0.4374,0.0293,-0.0134,13.3,-3.6,-44.2,263.92,-2.91,-5.64,30237
0.0982,0.7805,8.5198,0.8315,0.3776,9.764,-0.0232,0.2297,0.055,12.8,-3.6,-44.6,262.47,-2.27,-5.37,30340
-0.006,1.3036,9.0573,0.7256,0.4178,9.7708,0,0.1026,-0.1026,12.9,-3.4,-44.4,265.68,-2.35,-4.5,30442
0.0024,0.4884,11.6933,0.744,0.4384,9.7686,0.2566,-0.1185,-0.0635,13.2,-3.2,-44.1,266.21,-2.56,-4.36,30543
0.4357,-0.8356,12.7587,0.7918,0.5313,9.7602,-0.2847,0.1002,-0.2162,13.4,-3.2,-43.9,267.65,-3.11,-4.64,30646
0.6177,-0.0431,6.9791,0.4778,0.3782,9.7877,0.1368,-0.3409,-0.1234,13.7,-2.9,-44,265.29,-2.21,-2.79,30748
0.34,0.4298,7.6411,0.5446,0.2883,9.7873,-0.1723,-0.0037,-0.1442,13.9,-2.4,-44,267.74,-1.79,-3.1,30849
-0.1724,0.8487,8.0122,0.5436,0.2322,9.7888,0.0281,-0.0208,0.0293,14.3,-1.6,-44.1,266.59,-1.36,-3.18,30951
0.2634,0.7949,9.9695,0.7313,0.2346,9.7765,0.0623,-0.1405,0.171,14.2,-1.3,-44.3,270.01,-1.34,-3.93,31054
0.2011,0.3029,10.8314,0.9515,0.3934,9.7524,0.1796,0.0794,0.2566,13.6,-1.5,-44.6,272.32,-2.3,-5.57,31155
0.6141,0,11.5951,1.0375,0.3812,9.7442,-0.1503,-0.1808,0.3775,13.2,-2.1,-44.6,269.92,-2.6,-5.76,31257
0.6883,0.5207,9.1075,1.1495,0.3898,9.7312,-0.0171,-0.0037,0.1808,12.5,-3.3,-44.8,266.36,-2.44,-6.85,31359
0.146,0.7817,8.4982,1.0241,0.3293,9.7475,0.0672,0.0574,-0.0367,12.2,-3.9,-45.1,261.33,-1.92,-6,31461
0.1796,1.2151,8.1606,0.8729,0.4216,9.7586,0.0208,0.0709,-0.0672,12.2,-4,-45.2,262.19,-2.35,-5.23,31563
-0.152,0.3615,11.1103,0.8044,0.5177,9.7599,0.1234,0.0073,-0.2346,12.7,-4,-45.4,264.23,-3.03,-4.71,31666
0.7494,0.3867,10.5728,0.884,0.7135,9.7406,0.0635,-0.1442,-0.0501,13,-4.1,-45.1,266.56,-3.91,-4.85,31768
0.6117,0.1185,8.758,0.6995,0.5068,9.7685,0.0525,0.1613,-0.0281,13.3,-4.1,-44.6,263.92,-2.96,-4.1,31870
0.3304,0.146,9.833,0.5325,0.3391,9.7863,-0.3629,0.1759,-0.0977,13.6,-3.9,-44.2,261.44,-2,-3.4,31971
-0.3172,1.0283,8.2265,0.3445,0.3087,9.7957,-0.0586,0.2541,-0.0305,14.2,-3.2,-43.8,264.01,-1.8,-2.01,32073
-0.1137,1.1708,9.3362,0.136,0.2961,9.8012,-0.0134,0.3567,0.1051,14.8,-2.8,-43.7,264.26,-1.83,-1.24,32176
-0.3867,0.8559,11.0385,0.0102,0.3997,9.7985,0.099,0.0159,0.2162,15.8,-2.7,-43.3,265.29,-2.24,0.06,32277
-0.8859,-1.9632,16.6194,0.3146,0.1085,9.801,-0.5889,-0.5534,0.0269,16.2,-2.9,-43,263.79,-1.58,-0.94,32380
0.0431,0.6524,7.4747,0.5519,0.3694,9.7841,0.1588,-0.6341,0.2883,16.2,-3.2,-42.8,264.97,-1.96,-2.15,32482
0.0886,0.5387,8.6886,0.6783,0.196,9.7812,0.3702,-0.1649,0.0745,15,-3.7,-43.3,260,-1.15,-3.97,32584
0.0323,1.4162,8.3019,0.5897,0.3912,9.7811,0.0831,0.4704,0.0183,14.4,-4.2,-43.6,262.2,-2.29,-3.45,32686
-0.6069,0.7027,10.75,0.2617,0.5188,9.7894,-0.0403,0.1051,-0.2639,14.4,-4.8,-43.4,259.75,-3.03,-1.53,32787
0.7721,-0.1305,10.5955,0.4506,0.4687,9.7851,-0.6084,-0.3225,-0.2883,14.9,-4.9,-43.3,260.82,-3.15,-1.94,32890
0.5351,0.3065,7.8949,0.4583,0.266,9.7923,0.1662,0.0403,0.1784,15.3,-4.3,-42.9,260.47,-1.55,-2.68,32992
0.4489,0.5279,9.0788,0.5435,0.1526,9.7904,-0.0305,0.0415,0.0244,15,-3.6,-43,259.1,-0.89,-3.18,33093
-0.4788,0.8942,7.7656,0.2162,0.1275,9.8034,0.0037,0.0501,-0.0183,15,-3.2,-42.9,261.52,-0.81,-1.43,33196
-0.0024,0.8739,9.7707,0.2097,0.1113,9.8038,-0.0525,0.0073,0.0391,15.4,-3,-42.8,261.21,-0.72,-1.22,33298
-0.4621,0.0934,11.7136,0.2834,0.1813,9.8009,0.1552,-0.1772,0.2382,15.7,-2.9,-42.5,261.75,-0.75,-1.28,33399
-0.0994,-1.1001,12.3696,0.483,0.2133,9.7924,-0.3262,-0.3763,0.1918,15.7,-3.2,-42.2,263.35,-1.25,-2.82,33502
0.5052,0.8667,7.701,0.8121,0.2214,9.7705,-0.1955,-0.0904,0.0073,14.9,-3.9,-42.6,260.55,-1.33,-4.34,33603
-0.1987,0.6716,8.764,0.6872,0.113,9.7819,-0.0147,0.2248,-0.1417,14,-4.5,-43.4,258.3,-0.66,-4.02,33705
-0.3124,1.239,7.7859,0.4544,0.2826,9.792,0.1857,0.1564,-0.1588,13.8,-4.6,-43.5,256.04,-1.32,-2.94,33808
-0.5447,0.231,10.6506,0.3694,0.3947,9.7917,0.0623,-0.0965,-0.3079,14.5,-4.7,-43.4,258.8,-2.31,-2.16,33909
1.2366,-0.3807,11.0612,0.4363,0.4816,9.7851,0.1784,-0.088,-0.2224,14.9,-4.5,-43,263.52,-2.81,-2.55,34012
0.231,-0.3089,10.9367,0.3274,0.2429,9.7982,0.1393,0.1319,-0.0941,15.1,-4.2,-43.1,260.58,-1.63,-2.49,34113
-0.1341,0.1592,9.7588,0.2967,0.1948,9.8002,-0.0049,0.1222,-0.1833,15.2,-3.4,-43.1,262.85,-1.26,-1.92,34215
-0.9254,0.8308,8.2013,0.1423,0.1183,9.8049,-0.1649,0.1637,-0.2297,15.7,-2.5,-42.8,265.31,-0.84,-1.05,34317
-0.2286,1.1456,9.4128,0.1384,0.1509,9.8045,0.0428,-0.0183,0.0904,16.1,-2,-42.4,264.98,-0.75,-0.8,34420
-0.2921,0.5279,11.5987,0.1265,0.3793,9.7985,0.369,-0.0855,0.2786,16.4,-1.8,-42.1,268.68,-2.22,-0.74,34522
0.0694,-0.6416,12.4355,0.3009,0.5095,9.7888,0.0745,-0.1613,0.1564,16.2,-2.3,-42.3,271.26,-3.27,-1.43,34624
-0.0144,0.6237,7.9356,0.4343,0.5328,9.7825,0.2089,-0.182,0.1747,15.9,-3.1,-42.4,267.4,-3.04,-2.23,34725
-0.1353,0.7446,8.2492,0.4947,0.3554,9.7877,-0.0318,-0.0806,0.0721,15.5,-3.7,-42.6,262.25,-2.08,-2.89,34828
-0.2131,1.0618,8.3941,0.4906,0.3757,9.7872,0.215,-0.0403,0.088,15.3,-3.7,-42.9,261.5,-1.94,-2.98,34930
-0.5028,0.3603,11.3964,0.5236,0.5221,9.7787,0.1136,-0.0086,-0.1319,15.1,-3.7,-43.1,264.21,-3.05,-3.06,35032
0.2693,0.4058,10.076,0.6121,0.7162,9.7613,0.1649,-0.0916,-0.1649,14.9,-3.9,-43.1,266.97,-4.18,-3.44,35133
0.261,0.0084,9.2835,0.4024,0.405,9.79,0.2358,0.0635,0.1881,14.9,-3.7,-42.7,262.36,-2.37,-2.35,35236
0.1377,-0.1568,9.3422,0.4511,0.2215,9.7938,-0.5437,-0.0183,0.1038,14.9,-3.4,-42.8,265.6,-2.29,-2.68,35338
-0.158,0.6201,8.5222,0.4683,-0.0026,9.7955,-0.1454,0.0855,0.1271,15,-2.5,-42.8,263.94,-0.24,-2.92,35440
0.1125,0.929,9.3362,0.531,0.022,9.7922,0.0024,0.0684,0.1735,15,-2.2,-43.2,263.69,-0.12,-3.09,35543
-0.1736,0.4525,11.734,0.6028,0.3062,9.7833,0.336,-0.1307,0.2004,14.8,-2.4,-43.3,266.19,-1.14,-3.21,35644
-1.087,-1.2677,13.3932,0.7473,0.3069,9.7733,-0.3836,-0.3592,0.0342,14.5,-3.4,-43.1,264.7,-1.79,-4.37,35745
-0.0299,0.2227,9.3889,0.8848,0.4393,9.7568,-0.1674,-0.2529,0.1063,14.3,-4.2,-43.2,262.88,-2.51,-4.55,35847
-0.0563,0.4657,9.2632,0.7902,0.3513,9.7684,-0.0611,0.0098,0.0305,13.8,-5.1,-43.5,258.63,-2.05,-4.62,35950
-0.0215,1.0499,8.0062,0.7113,0.4041,9.7725,0.1393,0.0794,0.0183,13.7,-5.4,-43.7,259.02,-2.22,-4.21,36052
0.0012,0.5806,10.9319,0.6904,0.4361,9.7726,-0.0232,-0.0012,-0.2162,13.9,-5.7,-43.4,256.34,-2.55,-4.04,36153
1.1528,0.164,11.072,0.7964,0.5318,9.7598,-0.2602,-0.0208,-0.3738,14,-5.7,-43.2,257.65,-3.03,-4.41,36255
0.3256,0.0766,8.6682,0.5857,0.2773,9.7852,-0.2443,0.2346,-0.1747,14,-5,-43.2,257.04,-1.62,-3.43,36358
0.5363,0.2538,9.5385,0.618,0.1676,9.7857,-0.0513,-0.0916,0.0562,14.2,-4.4,-43.1,259.51,-1.27,-3.43,36459
-0.0431,0.6213,9.0345,0.647,0.1469,9.7842,0.1173,0.0049,-0.0501,14.3,-3.6,-43.2,258.66,-0.86,-3.78,36562
-0.0192,0.4429,10.1371,0.5598,0.2282,9.788,-0.0073,0.0403,-0.1197,14.5,-3.1,-43.2,263.42,-1.31,-3.58,36663
-0.0204,0.6883,11.2037,0.6042,0.4009,9.7798,0.1356,-0.11,0.088,14.6,-3.1,-43.5,265.84,-2.34,-3.54,36766
-0.5902,-0.6369,13.3992,0.7969,0.301,9.7696,-0.3274,-0.0929,0.1148,14.6,-3.5,-43.4,264.67,-1.76,-4.66,36868
-0.1652,0.4022,9.1423,0.9079,0.3889,9.7568,-0.1955,0.0904,-0.0696,14.1,-4,-43.4,262.53,-2.27,-5.32,36970
-0.1161,0.5662,8.8286,0.7263,0.3495,9.7735,0.011,0.1124,-0.0819,13.8,-4.2,-43.2,261.48,-1.91,-4.58,37072
0.1484,1.3946,8.5736,0.6369,0.4981,9.7733,0.1417,0,-0.011,13.9,-4.5,-43.4,263.66,-2.91,-3.73,37174
0.0515,0.9361,10.2951,0.661,0.6124,9.7652,0.0415,-0.0953,-0.237,14.2,-4.8,-43.3,261.37,-3.34,-3.73,37276
0.6919,-0.231,10.5979,0.727,0.6747,9.7564,0.0941,-0.0819,-0.2346,14.3,-4.9,-43.4,262.99,-3.94,-4.26,37378
0.2993,0.1832,9.2859,0.5883,0.4876,9.7768,0.1283,0.0648,-0.0892,14.4,-4.7,-43.5,260.06,-2.85,-3.44,37479
0.0958,0.3831,9.4104,0.5397,0.3142,9.7867,-0.0415,0.088,0.0171,14.4,-3.9,-43.6,261.58,-2.06,-3.36,37581
-0.0491,1.1337,8.6227,0.4618,0.2275,9.7931,-0.1637,0.1185,-0.0257,14.8,-2.9,-43.2,263.23,-1.33,-2.7,37684
-0.0335,0.0551,10.8122,0.4632,0.2074,9.7935,-0.1112,0.0672,-0.0037,15,-2.3,-43,266.28,-1.21,-2.71,37785
-0.2035,0.4968,10.3633,0.4791,0.4244,9.7857,0.1869,0.0867,0.2712,15.1,-2.3,-42.8,268.7,-2.19,-2.94,37888
0.1053,0.2358,9.845,0.572,0.2406,9.787,0.3555,-0.1258,0.3396,15.1,-2.7,-42.6,263.58,-1.41,-3.35,37989
0.4549,0.2873,8.8585,0.7825,0.3084,9.7705,-0.0672,-0.2566,0.0806,15,-3.2,-43,265.93,-2.33,-4.48,38092
-0.3651,0.4729,8.6993,0.803,0.2569,9.7703,-0.0086,0.0147,-0.0562,14.5,-3.6,-43.6,261.17,-1.5,-4.7,38193
0.0204,1.2737,8.1558,0.7677,0.3175,9.7714,0.0147,0.0195,-0.0757,14.3,-3.8,-43.9,261.22,-1.76,-4.48,38296
-0.1197,0.5447,12.0608,0.7897,0.368,9.7679,0.0379,-0.1136,-0.2138,14.1,-3.6,-43.7,262.21,-2.15,-4.62,38397
0.4453,-0.3831,11.3485,0.7391,0.3146,9.7737,-0.204,0.0867,-0.2651,14.1,-3.5,-43.7,264.63,-1.84,-4.32,38499
0.0778,0.1006,8.2384,0.5552,0.2165,9.7885,-0.0757,-0.1002,-0.022,14.2,-2.9,-43.7,262.52,-1.12,-3.21,38601
0.2885,0.0946,9.3709,0.6904,0.0774,9.782,-0.1246,-0.1552,-0.0379,14.6,-2.2,-43.3,264.73,-0.47,-4,38703
0.1472,0.9577,8.1594,0.7079,0.073,9.7808,0.0403,-0.0073,0.0611,14.9,-1.3,-43.1,267.68,-0.37,-4.13,38806
0.2286,0.759,10.0796,0.7082,0.1114,9.7804,0.044,0.0208,0.099,14.6,-1.1,-42.9,268.34,-0.65,-4.14,38908
0.0958,0.0168,11.2599,0.7343,0.2058,9.777,0.1454,-0.2187,0.1381,14.5,-1.3,-42.9,269.61,-1.2,-4.3,39010
0.0646,-0.4621,10.5034,0.891,0.204,9.764,-0.2199,-0.0293,0.0867,14.1,-1.8,-42.9,265.6,-0.84,-5.52,39112
0.4633,0.4729,7.9416,0.9481,0.358,9.7541,-0.0476,-0.0745,0.0391,13.8,-2.4,-43,268.66,-2.18,-5.43,39213
-0.0862,0.6812,8.5712,0.9412,0.3371,9.7556,0.1503,0.1173,0.0415,13.4,-3,-43.3,264.75,-1.97,-5.51,39316
0.1221,1.6915,8.0062,0.8485,0.558,9.7539,0.2676,0.0489,0.1185,13.6,-3.6,-43.4,264.75,-3.26,-4.97,39418
-0.0814,0.7997,11.6286,0.8731,0.6094,9.7487,-0.0147,-0.1295,-0.077,13.7,-4,-43.5,265.47,-3.56,-5.12,39520
0.7039,-0.7362,12.9179,0.9934,0.5724,9.7394,-0.5131,0.1002,-0.2761,13.7,-4.5,-43.8,266.53,-3.89,-5.89,39622
0.4752,0.1377,8.2492,0.8381,0.5584,9.7548,-0.1075,-0.0648,0.0599,13.7,-4.4,-43.7,264.95,-3.26,-4.91,39723
0.401,0.9254,6.9216,0.8124,0.4836,9.761,0.0721,0.0965,0.0953,13.8,-4.2,-43.7,263.87,-2.83,-4.76,39826
0.1676,1.1971,7.9847,0.8551,0.4462,9.7591,0.0672,0.0098,0.1943,13.9,-4,-43.3,263.07,-2.54,-5.01,39928
0.2442,1.0953,9.8916,0.9358,0.4604,9.751,0.0831,0.1148,0.1332,13.8,-4.1,-43.2,263.52,-2.69,-5.48,40030
0.8128,1.1923,11.7974,0.929,0.6416,9.7414,0.1967,-0.1026,0.3262,13.7,-4.4,-43.2,264.94,-3.32,-5.39,40132
-0.085,-0.8068,12.7348,1.1091,0.4559,9.7331,-0.3311,-0.1723,0.1857,13.6,-5.2,-43.3,260.68,-2.66,-6.5,40234
0.8775,0.4034,8.017,1.1033,0.542,9.7293,-0.3201,0.2114,-0.0428,13.4,-5.8,-43.7,258.38,-3.14,-6.44,40336
0.0766,0.6249,8.2887,0.8924,0.3394,9.7601,-0.0855,0.1808,-0.077,13.2,-6.3,-43.9,255.07,-1.98,-5.22,40437
0.103,1.2977,8.023,0.7598,0.3579,9.7706,0.0782,0.0037,-0.022,13.4,-6.2,-43.8,254.85,-2.09,-4.45,40540
0.7829,1.1169,11.0014,0.5643,0.5293,9.7761,0.1271,0.1393,-0.4875,14,-5.9,-43.4,256.74,-2.8,-3.66,40642
0.4585,-0.316,12.1111,0.4425,0.5717,9.78,-0.5058,0.27,-0.4386,14.8,-5.4,-43.2,261.51,-3.34,-2.59,40744
0.158,0.4537,8.3318,0.2662,0.4007,9.7948,0.2053,-0.0367,-0.1197,15.4,-4.5,-42.7,262.05,-2.34,-1.56,40846
-0.3831,0.8703,7.7117,0.373,0.298,9.795,0.1026,0.0513,-0.0782,15.9,-3.1,-42.5,264.34,-1.74,-2.18,40947
-0.5794,1.2031,7.938,0.3547,0.3539,9.7938,0.0965,-0.0061,0.0538,16,-2.2,-42.1,267.9,-1.88,-2.06,41049
-0.5962,0.68,10.0197,0.3287,0.3719,9.7941,-0.0428,0.0159,0.1478,15.8,-2,-42,268.59,-2.17,-1.92,41152
-0.1592,0.3903,10.3645,0.3831,0.5403,9.7843,0.3445,-0.0257,0.4068,15.8,-2.3,-41.8,270.91,-3.16,-2.24,41253
-0.2406,-0.7506,12.6019,0.5267,0.4292,9.7831,0.0538,-0.1283,0.3348,15.8,-3,-42.2,266.91,-2.82,-2.75,41356
-0.0251,0.486,8.3282,0.6411,0.4645,9.7746,0.0318,-0.1368,0.1747,15.5,-4.1,-42.6,263.88,-2.71,-3.75,41457
-0.1927,0.8176,8.4036,0.5716,0.3222,9.7847,0.0269,-0.0134,0.033,15.2,-4.6,-43,258.38,-1.91,-3.36,41559
-0.3292,1.5455,8.7484,0.5733,0.3695,9.7829,-0.066,-0.0586,-0.0819,15.1,-4.6,-42.9,259.03,-2.21,-3.25,41661
-1.0618,0.334,12.5145,0.5912,0.4585,9.7781,0.0208,-0.0538,-0.1026,15,-4.3,-42.7,263.4,-2.68,-3.46,41764
1.4162,-0.2083,11.3306,0.7177,0.4709,9.769,-0.0305,-0.259,0.0073,15,-4.3,-42.5,264.17,-3.05,-3.83,41865
0.7195,0.3807,7.6004,0.6114,0.3429,9.7816,0.2101,-0.0012,0.0855,14.8,-3.8,-42.3,261.71,-2,-3.58,41967
0.3567,0.7015,7.683,0.6157,0.2261,9.7847,-0.0892,0.1161,-0.077,14.8,-3.6,-42.4,260.16,-1.32,-3.6,42069
-0.1077,0.5997,8.0888,0.5255,0.1401,9.7916,-0.0599,0.0586,-0.0672,15,-3,-42.3,262.03,-0.82,-3.07,42171
-0.2622,0.3555,10.6638,0.5268,0.1056,9.7919,0.0098,0.0391,0.1491,15,-2.7,-42.4,261.56,-0.62,-3.08,42274
-0.3783,0.589,10.8589,0.5535,0.2685,9.7873,-0.0061,-0.204,0.2297,15.2,-2.7,-42.6,263.94,-1.57,-3.24,42376
-0.1149,0.073,8.7759,0.6351,0.0158,9.7861,-0.4765,0.1222,0.0819,14.9,-3,-43,260.43,0.1,-4.35,42478
-0.4752,-0.0108,9.3027,0.673,-0.0081,9.7835,-0.1552,0.022,0.2456,14.8,-3.4,-43.3,261.03,-0.22,-4.04,42579
-0.2071,0.5351,9.2105,0.6241,0.0072,9.7868,0.0904,0.1967,0.1649,14.6,-3.6,-43.1,257.36,-0.04,-3.65,42681
-0.3675,1.1456,8.9483,0.4621,0.1747,9.7942,0.0709,-0.0171,-0.0012,14.9,-4.3,-42.8,259.19,-1.02,-2.7,42784
-0.2993,1.0858,10.9283,0.594,0.298,9.7841,0.2309,-0.2236,0.0806,15,-4.8,-42.6,256.89,-1.31,-3.12,42885
-0.5794,-1.4988,12.1781,0.7979,0.2277,9.7715,-0.3238,0.1063,-0.1356,14.7,-5.5,-43,257.67,-1.33,-4.67,42987
0.68,0.0874,8.6862,0.679,0.2912,9.7788,-0.1552,-0.1002,0.0904,14.5,-5.7,-43.2,255.16,-1.7,-3.97,43089
0.4238,0.8523,8.272,0.6901,0.1693,9.7809,-0.0623,0.0354,0.0538,14.3,-5.7,-43,252.75,-0.99,-4.04,43192
0.5746,1.3156,7.9775,0.5721,0.103,9.7894,0.0086,0.0134,0.066,14.5,-5.6,-42.9,252.38,-0.6,-3.38,43294
0.5746,0.5674,10.1801,0.546,0.1412,9.7904,0.2309,-0.0733,0.0538,14.7,-5.5,-42.6,255.81,-0.83,-3.19,43396
0.5578,-0.0826,10.0987,0.6013,0.3698,9.7812,0.2688,-0.0147,0.1246,14.8,-5.6,-42.6,255.94,-2.16,-3.52,43497
0.3579,0.6967,8.4491,0.7786,0.2339,9.7729,0.2211,0.1148,0.1515,14.7,-6,-42.4,254.63,-1.37,-4.55,43599
-0.8248,0.0072,8.7652,0.7873,0.1697,9.7735,-0.0843,0.0061,0,14.3,-6.2,-42.5,253.93,-1.37,-4.77,43701
-0.3077,0.9852,8.169,0.8026,0.2736,9.7699,0.2407,-0.0073,0.1332,14,-6.1,-43,253.92,-1.29,-4.82,43804
-0.0587,0.8751,10.4663,0.8042,0.4062,9.7652,0.0733,0,-0.0098,13.8,-6.3,-43.4,256.28,-2.37,-4.71,43906
0.1484,0.3603,10.5764,0.8414,0.5383,9.7556,0.1576,-0.022,-0.0635,13.8,-6.6,-43.6,254.71,-2.89,-4.91,44007
0.0287,-0.1496,9.93,0.6792,0.2445,9.78,0.2492,0.2847,0.1784,13.8,-6.8,-43.1,250.65,-1.43,-3.97,44110
0.8164,0.3436,9.1949,0.6362,0.2855,9.7818,-0.1808,-0.1319,0.0733,14.1,-6.7,-43.2,251.83,-2.1,-3.52,44211
-0.5088,0.5231,8.4288,0.5428,0.0867,9.7912,-0.1491,0.1234,-0.0257,14.5,-6.2,-43.1,252.7,-0.75,-3.35,44314
0.4597,1.3563,8.3282,0.4992,0.0954,9.7935,-0.0061,0.0733,0.1307,14.7,-5.9,-42.9,251.93,-0.51,-3,44416
-0.3124,0.3508,12.4223,0.5373,0.1624,9.7906,0.1735,-0.1087,0.1417,14.8,-5.7,-42.4,252.89,-0.95,-3.14,44518
-0.1472,-0.6955,11.6454,0.6034,0.3289,9.7825,-0.1564,-0.3567,0.1063,14.9,-6.2,-42.1,255.77,-2.28,-3,44620
0.2957,0.9278,7.9942,0.6838,0.3777,9.7755,0.0929,-0.2101,0.1381,14.6,-7.3,-42.2,253.14,-2.21,-4,44721
-0.2071,0.4537,8.8538,0.692,0.176,9.7806,-0.066,-0.0403,0.0415,14.1,-8.1,-42.7,246.91,-1.03,-4.05,44823
0.2741,1.1049,7.847,0.5814,0.2248,9.7868,0.1564,0.2334,0.1466,13.9,-8.1,-42.8,246.59,-1.07,-3.58,44926
-0.1353,0.5267,10.6123,0.6246,0.3766,9.7795,0.1417,0.0183,-0.1979,14,-8.3,-42.7,249.1,-2.2,-3.65,45028
0.4896,-0.3998,10.2053,0.6523,0.5186,9.7712,-0.4679,-0.0232,-0.2871,14.1,-8.5,-42.6,251.08,-3.03,-3.82,45129
0.4345,0.7027,8.2349,0.4507,0.1703,9.7948,-0.1393,0.2798,-0.0134,14.5,-8.3,-42.6,246.81,-0.99,-2.63,45231
0.3053,0.1437,10.3274,0.4816,0.0232,9.7948,-0.1429,-0.0672,-0.0134,14.8,-7.7,-42.3,245.45,-0.34,-2.73,45334
0.0048,0.9373,8.0182,0.412,0.0253,9.798,0.1662,0.0342,0.0648,15.2,-6.6,-42.1,247.63,-0.15,-2.41,45435
-0.4944,0.4214,9.3218,0.3934,0.0142,9.7987,-0.1222,0.0367,-0.0086,15.3,-6.4,-42,250.78,-0.3,-2.18,45537
-0.0634,0.5531,9.9719,0.4673,0.2534,9.7922,0.3372,0.0745,0.2969,15.3,-6.4,-41.8,253.81,-1.48,-2.73,45639
-0.2777,-0.6512,12.2787,0.5501,0.1251,9.7904,-0.1772,-0.0464,0.1881,15.2,-7,-41.8,250.11,-1.06,-3.1,45742
0.4705,0.6524,8.4946,0.759,0.2565,9.7739,-0.1148,0.0525,-0.1124,14.6,-7.6,-42,248.52,-1.3,-4.12,45844
-0.1472,0.8009,8.3641,0.6913,0.1818,9.7806,0.0257,0.0452,-0.0574,14.2,-8.2,-42.6,246.98,-1.06,-4.04,45945
0.0156,1.1504,7.853,0.595,0.3236,9.7832,0.1344,-0.0257,-0.121,14.1,-8.3,-42.6,247.73,-1.66,-3.45,46047
-0.5758,0.3651,11.8094,0.6081,0.419,9.7788,0.1136,0.0281,-0.2077,14.3,-8.3,-42.7,249.58,-2.45,-3.56,46149
0.7266,-0.0431,9.7911,0.6577,0.5448,9.7694,0.1833,-0.2162,-0.1393,14.5,-8.4,-42.6,251.99,-3.07,-3.58,46251
0.4154,0.4752,7.6614,0.5853,0.2857,9.785,0.2358,-0.0464,0.0721,14.7,-7.8,-42.5,248.74,-1.67,-3.42,46353
0.2155,0.5914,9.0728,0.5547,0.1462,9.7899,0.1173,0.0941,0.0892,14.7,-7.3,-42.2,249.67,-0.76,-3.34,46455
-0.2993,0.4836,9.3182,0.4362,0.2026,9.7948,-0.0171,0.1197,0,15,-6.7,-42.2,249.55,-0.92,-2.76,46558
-0.2239,0.3519,9.7145,0.3201,0.3631,9.7947,0.0953,0.1796,0.1136,15.3,-6.8,-41.8,251.55,-2.12,-1.87,46659
0.5183,0.8499,8.831,0.3299,0.5523,9.7855,0.0843,0.0709,0.3262,15.7,-7.7,-41.7,252.01,-3.23,-1.93,46762
-0.2861,0.6213,9.5828,0.4319,0.2682,9.7935,0.1857,-0.11,0.2566,15.7,-8.2,-41.7,248.94,-1.57,-2.53,46863
-0.3065,0.5291,9.6415,0.5149,0.2529,9.7899,-0.1625,-0.0806,0.0208,15.5,-8.6,-42.2,247.18,-1.81,-3.17,46965
-0.2993,1.2067,8.6203,0.4906,0.2515,9.7911,0.055,0.0489,0.033,15.1,-8.5,-42.5,247.89,-1.47,-2.87,47067
-0.3328,1.239,9.9192,0.4425,0.4126,9.788,0.1515,0.0037,-0.1478,14.8,-8.6,-42.4,246.74,-2.41,-2.59,47170
-0.0443,0.7003,11.2683,0.4609,0.6607,9.7735,0.2101,-0.0599,-0.1772,14.9,-8.8,-42.4,249.92,-3.86,-2.7,47271
-0.2155,-0.2849,10.2316,0.4553,0.7695,9.7658,-0.2187,0.2712,-0.3641,14.9,-9.2,-42.2,252.11,-4.74,-3.1,47374
-0.3077,-0.091,9.2117,0.3851,0.6929,9.7746,-0.292,0.066,-0.0794,15.1,-9.1,-42,250.01,-4.05,-2.26,47476
-0.0898,0.9146,7.8266,0.2859,0.5147,9.789,-0.022,0.0684,0.1002,15.3,-8.8,-41.6,247.23,-3.01,-1.67,47577
0.1317,1.2761,8.5605,0.1698,0.4373,9.7954,0.1772,-0.0183,0.1173,15.6,-8.1,-41.4,249.71,-2.56,-0.99,47679
-0.1999,0.8499,10.0568,0.1388,0.6506,9.7841,0.2712,-0.2199,0.1234,15.9,-8,-41.2,251.07,-3.33,-0.51,47781
-0.6177,0.0527,9.1985,0.2254,0.8997,9.7627,-0.3372,-0.3201,0.1332,16,-8.6,-41.3,252.83,-5.26,-1.32,47884
0.1472,1.1995,8.4013,0.44,0.7478,9.7682,0.066,-0.0538,0.2492,15.4,-9.4,-41.2,250.67,-4.37,-2.58,47986
-0.4465,0.6812,8.7472,0.5175,0.5627,9.7768,-0.1136,0.0305,-0.0122,14.8,-9.7,-41.5,246.57,-3.61,-3.1,48087
-0.1065,1.6352,8.2277,0.4979,0.5177,9.7803,0.1772,0.0208,0.0037,14.4,-9.4,-42,247.09,-3.03,-2.91,48189
-0.2047,1.6592,8.7819,0.4239,0.6643,9.7749,0.077,0.1222,-0.0709,14.3,-9.2,-42.3,248.41,-3.71,-2.68,48291
0.1329,1.063,10.3621,0.4889,0.7774,9.7636,0.259,-0.0147,0.055,14.5,-9.1,-42.3,251.53,-4.55,-2.87,48393
-0.1353,-0.5698,12.3182,0.5785,0.7289,9.7624,-0.3054,0.3335,-0.1136,14.5,-9.4,-42.2,251.25,-4.26,-3.39,48495
-0.0778,0.3783,9.1051,0.3669,0.5199,9.786,-0.0452,0.1319,0.0635,14.4,-9.3,-42.4,247.68,-3.54,-2.26,48598
0.2933,1.4533,8.0637,0.3693,0.4437,9.7896,-0.0892,0.1344,0.0831,14.4,-9.1,-42.5,246.16,-2.8,-2.44,48699
0.34,1.4246,8.5557,0.3153,0.4772,9.79,0.0648,0.1649,0.1051,14.5,-8.6,-42.8,247.09,-2.79,-1.84,48802
-0.073,1.2031,12.1494,0.3126,0.6068,9.7829,0.2175,-0.2248,0.0953,14.6,-8.9,-42.6,248.78,-3.55,-1.83,48903
0.1784,-0.6919,12.3445,0.4144,0.6006,9.7795,-0.2321,-0.0953,0.0024,14.6,-9.4,-42.4,249.8,-4.03,-2.04,49006
0.067,0.9182,8.1307,0.557,0.6641,9.7683,0.1967,-0.2773,0.1906,14.2,-9.9,-42.2,246.28,-3.88,-3.26,49108
-0.0431,0.68,8.9651,0.6603,0.5189,9.7706,-0.0648,-0.0648,-0.044,13.5,-10,-42.5,245.04,-3.03,-3.87,49209
-0.0539,1.3827,8.1199,0.6296,0.5483,9.771,0.1368,0.1136,-0.0281,13,-9.9,-43,244.13,-3.21,-3.69,49312
-0.2741,0.9529,9.6857,0.5315,0.6967,9.7674,0.055,0.0489,-0.2871,12.8,-9.9,-43,245.52,-4.07,-3.11,49413
0.1077,1.0415,10.5608,0.5471,0.8252,9.7565,0.1112,-0.215,-0.1918,12.9,-9.7,-43,246.44,-4.42,-3.24,49515
0.3783,-0.2095,11.2504,0.5574,0.6755,9.7675,-0.391,0.314,-0.2578,13.2,-9.7,-42.7,245.38,-3.95,-3.27,49618
0.0718,0.5399,7.7979,0.301,0.8288,9.7669,-0.1454,0.1014,-0.2114,13.5,-9.5,-42.9,251.38,-5.09,-1.88,49720
-0.4824,0.9661,8.922,0.2279,0.6791,9.7805,-0.022,0.1258,-0.1637,14,-9.1,-42.4,247.86,-3.97,-1.33,49824
-0.7183,1.4198,10.0724,0.2125,0.7027,9.7791,-0.1503,-0.1454,-0.0501,14.5,-8.7,-42.2,249.36,-4.11,-1.24,49924
-0.2933,1.4856,11.1474,0.334,0.6816,9.7772,-0.0061,-0.1344,0.1258,14.6,-8.3,-42,252.67,-4.04,-1.64,50025
0.4369,0.2562,10.8146,0.4739,0.627,9.7751,-0.3531,-0.2297,0.0977,14.4,-8.2,-42.2,252.37,-4.1,-2.49,50127
-0.4944,0.9086,8.1977,0.58,0.5497,9.774,0.0733,-0.1185,0.0929,13.7,-8.1,-42.8,251.19,-3.21,-3.4,50229
-0.2023,0.3232,9.5984,0.6966,0.4849,9.7699,-0.2065,-0.1112,-0.0037,13.1,-8.2,-43.3,249.74,-2.83,-4.08,50332
-0.4705,1.1229,8.2959,0.6268,0.5255,9.7725,0.1258,0.0611,0.1258,12.7,-8.2,-43.9,249.69,-2.83,-3.74,50433
-0.4214,1.2186,9.408,0.6138,0.6411,9.7664,0.1674,-0.0892,0.0965,12.5,-8.6,-44.1,248.02,-3.49,-3.61,50536
0.5531,0.5974,10.3573,0.6663,0.8606,9.7461,0.3335,-0.0012,0.0391,12.6,-9.4,-43.8,252,-5.03,-3.91,50638
0.103,-0.7278,12.5743,0.4427,0.6199,9.777,-0.3873,0.4374,-0.1906,12.7,-10.1,-43.9,245.81,-4.01,-3.26,50739
-0.0407,-0.0215,10.1155,0.3699,0.3865,9.792,-0.5901,0.0073,-0.0562,13.1,-10.1,-43.9,240.53,-2.26,-2.16,50841
0.3388,1.2833,8.5102,0.4377,0.2634,9.7933,0.1002,0.0354,0.11,13.3,-9.5,-44.1,242.42,-1.54,-2.61,50944
0.3531,1.4916,9.9695,0.4427,0.3856,9.7891,0.0794,-0.0098,-0.0012,13.5,-8.9,-43.9,245.47,-2.25,-2.59,51045
-0.3077,1.0534,10.6063,0.3467,0.5911,9.7827,0.3115,0.0354,0.0867,13.5,-9,-43.9,246.61,-2.94,-2.14,51147
-0.9026,-0.7697,12.5241,0.3812,0.6828,9.7754,-0.2272,-0.2211,0.0012,13.5,-9.9,-43.4,245.85,-3.99,-2.23,51249
-0.1664,0.5148,9.5146,0.572,0.6911,9.7655,0.1967,-0.1808,0.2566,13.4,-10.2,-43.5,245.04,-3.88,-3.08,51351
-0.5447,0.6297,8.9172,0.5214,0.5286,9.7785,-0.1698,-0.055,-0.0293,13.1,-10.6,-43.3,240.71,-3.32,-2.97,51454
-0.3196,1.5586,7.5381,0.41,0.56,9.7821,0.1197,0.0318,0.0171,13.1,-10.7,-43.4,239.94,-3.27,-2.4,51556
-0.1484,1.0391,9.997,0.4295,0.7158,9.7711,0.1393,-0.0122,-0.077,13.4,-10.9,-42.9,242.1,-4.19,-2.52,51657
-0.0323,0.9421,10.0868,0.4837,0.9217,9.7512,0.1002,-0.0965,-0.2285,13.6,-11.3,-42.9,245.9,-5.13,-2.74,51760
0.0036,0.2035,10.9547,0.3507,0.6446,9.7792,0.1576,0.1148,-0.022,13.9,-11.4,-42.7,242.21,-3.77,-2.05,51861
0,0.6764,9.8904,0.2557,0.5427,9.7883,-0.1234,0.0195,-0.0745,14.4,-10.9,-42.6,240.3,-3.17,-1.5,51963
-0.2143,1.4269,8.0625,0.172,0.4741,9.7937,-0.0086,0.0916,-0.0721,14.8,-10.2,-42.5,243.48,-2.86,-1.17,52066
-0.3364,1.2725,9.1506,0.1699,0.5691,9.7886,0.0696,0.0354,-0.0281,15.3,-9.7,-41.9,244.32,-3.33,-0.99,52168
-0.5243,0.6129,10.0868,0.1644,0.7027,9.7801,0.1222,-0.2663,0.1894,15.4,-9.6,-41.9,245.05,-3.8,-0.67,52270
0.3962,-0.753,12.736,0.3641,0.6955,9.7752,-0.0904,-0.1588,0.1662,15.5,-10,-41.6,248.14,-4.07,-2.13,52371
0.2777,0.8116,8.2923,0.582,0.4998,9.7766,0.1918,-0.1442,0.259,15.1,-10,-41.7,245.28,-2.83,-3.17,52474
-0.3244,0.3555,9.153,0.6214,0.2704,9.7832,-0.0965,-0.0696,-0.0391,14.4,-9.9,-42.1,241.95,-1.58,-3.63,52576
-0.2741,0.7159,8.3606,0.5867,0.356,9.7826,0.1246,0.0721,0.0782,13.9,-9.5,-42.5,245.06,-1.77,-3.61,52677
-0.152,0.8452,9.7719,0.5546,0.4731,9.7795,0.1136,0.0012,-0.055,13.9,-9.5,-42.8,247.03,-2.77,-3.25,52779
0.0646,0.7542,11.7328,0.6229,0.7043,9.7615,0.2981,-0.0159,-0.1442,14,-9.8,-42.5,245.66,-3.47,-3.54,52881
-0.6608,-0.2191,11.3473,0.3743,0.599,9.7812,-0.1576,0.1894,-0.1185,14.1,-10.1,-42.4,246.84,-4.29,-2.88,52983
0.0455,0.6548,8.8538,0.3445,0.4614,9.7897,-0.1943,-0.044,0.1674,14.6,-9.9,-41.9,244.92,-3.27,-1.74,53085
-0.2071,0.7889,9.0908,0.4963,0.3828,9.7866,-0.033,-0.0379,0.0904,14.9,-9.4,-42.3,246.65,-2.24,-2.9,53188
0.3196,1.4521,8.8298,0.5207,0.4802,9.781,0.0061,0.1588,0.0684,14.8,-9.2,-42.4,247.94,-2.81,-3.05,53289
0.3831,1.0953,10.392,0.4616,0.619,9.7762,0.1833,-0.0232,0.1038,14.6,-9.4,-42.5,248.69,-3.3,-2.67,53392
-0.2059,-0.2298,10.7847,0.4194,0.7995,9.765,0.0098,0.0257,0.1148,14.7,-10.3,-41.9,248.54,-4.68,-2.46,53493
-0.3759,0.5088,9.8545,0.5147,0.6336,9.7726,0.0232,-0.2578,0.27,14.7,-10.7,-41.6,243.98,-3.72,-2.76,53596
-0.1221,0.6464,9.481,0.6857,0.4776,9.771,-0.2871,-0.1222,0.1148,14.2,-11.3,-41.5,241.76,-2.79,-4.01,53697
-0.595,0.8727,9.5361,0.6906,0.4376,9.7725,-0.0208,0.1112,0.0941,13.8,-11.2,-42,241.88,-2.64,-4.21,53800
-0.2011,1.2953,9.2296,0.6579,0.5738,9.7677,0.1478,0.0134,0.1955,13.3,-11.4,-42.5,241.48,-3.35,-3.85,53902
-0.0431,0.7554,10.228,0.7423,0.8478,9.7417,0.4215,-0.3054,0.2297,13.2,-12,-42.7,242.82,-4.96,-4.36,54004
0.1389,-0.0778,10.738,0.7762,0.8076,9.7425,-0.2676,0.171,-0.0855,12.9,-12.9,-42.6,241.97,-5.47,-5.21,54106
-0.0575,0.3065,8.6898,0.7781,0.716,9.7495,-0.1943,0.0391,0.182,12.8,-13.6,-42.5,236.03,-4.19,-4.56,54208
0.0886,0.8619,8.4623,0.7655,0.5318,9.7623,-0.0929,0.2285,0.2126,12.6,-13.8,-42.4,234.09,-3.11,-4.48,54309
0.2837,1.0379,8.1786,0.6443,0.4701,9.7742,0.0257,0.0513,0.259,12.6,-13.6,-42.2,232.63,-2.75,-3.77,54411
1.7573,1.3838,10.4734,0.6286,0.5007,9.7737,0.1466,-0.0403,0.3665,12.6,-13.8,-42.5,232.3,-2.66,-3.62,54514
0.9505,1.2857,8.9459,0.4385,0.6792,9.7733,0.0244,-0.0147,-0.0525,12.6,-14.4,-42.4,233.23,-3.63,-3.03,54615
0.1053,0.0539,10.4543,0.4473,0.4686,9.7852,-0.3873,0.1869,-0.3091,12.7,-14.9,-42.2,228.89,-2.74,-2.62,54717
0.2538,0.6045,9.2273,0.5036,0.41,9.7851,-0.1405,-0.0428,-0.1784,12.9,-14.8,-41.9,229.42,-2.7,-3.06,54820
0.1748,0.668,9.4128,0.5467,0.3589,9.7848,0.0024,0.0049,-0.2578,13.1,-13.7,-41.9,230.83,-2.1,-3.2,54921
0.4118,1.0798,8.2001,0.3862,0.3807,9.7916,0.1552,0.0929,-0.2871,13.5,-12.6,-42,233.96,-2.22,-2.26,55024
-0.0862,0.176,11.5592,0.3425,0.464,9.7897,0.0599,-0.044,-0.3873,14,-12.1,-41.9,237.04,-2.71,-2,55125
0.1975,0.2334,11.3749,0.3052,0.4998,9.7891,-0.4154,0.1197,-0.4447,14.7,-11.6,-41.7,238.81,-2.92,-1.79,55228
-0.4741,0.5866,9.3122,0.2095,0.3485,9.7982,-0.066,-0.0684,-0.2297,15.2,-10.9,-41.8,238.75,-1.92,-1.11,55330
-0.2023,0.9936,8.0721,0.2108,0.2641,9.8008,-0.0733,-0.0269,-0.2346,15.7,-9.5,-41.6,245.16,-1.53,-1.42,55431
0.0527,1.3707,8.4743,0.2395,0.3727,9.7966,0.1943,-0.0941,-0.1173,16,-8.4,-41.5,248.12,-1.75,-1.16,55533
-0.4118,0.6812,10.2951,0.152,0.5244,9.7914,0.2529,0.1112,-0.0745,16.1,-8.1,-41.4,250.02,-2.6,-1.29,55635
0.0862,1.0151,9.2799,0.0791,0.8051,9.7732,0.3885,0.1222,0.1332,16.3,-8.3,-41.7,254.49,-4.71,-0.46,55737
-0.4657,-0.2119,12.2799,0.2303,0.6473,9.7826,-0.1393,-0.0037,-0.0379,16.4,-8.6,-41.7,250.68,-4.21,-1.21,55840
-0.3077,0.3053,9.7348,0.2672,0.5319,9.7886,-0.3433,0.0806,-0.2065,16.3,-8.7,-41.8,249.94,-3.72,-1.67,55942
-0.8428,0.5004,8.327,0.1967,0.4071,9.7962,-0.088,0.0476,-0.1723,16.2,-8.4,-41.7,249.8,-2.49,-1.09,56043
-0.3448,1.4066,8.8011,0.2429,0.4652,9.7926,0.0452,-0.0586,-0.0012,16.3,-7.7,-41.6,250.35,-2.66,-1.33,56145
-0.4705,0.6369,11.6131,0.311,0.55,9.7863,0.1735,-0.0745,-0.0635,16.2,-7.1,-41.5,254.74,-3.22,-1.82,56247
-0.0551,-0.0658,10.4854,0.245,0.6311,9.7833,-0.3042,0.2334,-0.1613,16.2,-7.1,-41.7,255.81,-3.69,-1.43,56350
-0.103,0.243,8.3246,0.1687,0.4921,9.7928,0.0269,-0.0171,-0.0391,16.3,-7,-41.9,253.82,-2.97,-0.88,56452
-0.0323,0.6129,8.8789,0.2394,0.2717,9.8,-0.1747,-0.0147,0.0367,16.4,-6.7,-42,251.05,-1.59,-1.4,56553
-0.2897,1.1396,8.1355,0.3134,0.2215,9.7991,0.0721,-0.0733,0.1576,16.4,-5.9,-42.1,253.38,-1.18,-1.7,56655
-0.085,0.759,10.4004,0.3764,0.26,9.796,0.0147,-0.0513,0.1393,16.2,-5.8,-42,254.27,-1.45,-2.18,56758
0.9062,0.5555,9.8545,0.4108,0.525,9.784,0.2065,-0.055,0.2602,16,-6.3,-41.9,257.97,-3.07,-2.4,56859
0.4908,0.3388,8.922,0.5478,0.4434,9.7813,0.5131,0.0305,0.3396,15.5,-7,-41.7,253.07,-1.91,-3.46,56962
-0.1305,0.4752,8.5593,0.594,0.4585,9.7779,-0.1698,-0.0086,-0.0183,15.2,-7.6,-41.9,251.86,-3.14,-3.48,57064
-0.4262,0.6632,8.9675,0.5662,0.4001,9.7821,0.0024,0.0305,-0.0281,14.7,-7.9,-42.3,249.91,-2.23,-3.43,57165
-0.1281,1.2522,9.0154,0.4994,0.5008,9.7811,0.0147,0.0269,-0.1124,14.9,-8.1,-42.5,251.03,-2.93,-2.92,57267
-0.1065,0.6608,11.4072,0.5693,0.5793,9.773,0.121,-0.1295,-0.226,15,-8.1,-42.5,251.43,-3.03,-3.18,57369
-0.0108,-0.2885,11.0684,0.4822,0.5322,9.7803,-0.2382,0.2615,-0.3384,15.3,-8,-42.1,251.36,-3.11,-2.82,57472
0.3915,0.6488,7.7644,0.3212,0.4259,9.7921,-0.3213,-0.0012,-0.1234,15.4,-7.5,-42,253.33,-2.85,-2.03,57573
-0.2658,0.8942,8.2384,0.3551,0.1727,9.7987,-0.0757,-0.044,-0.0574,15.9,-6.5,-42.1,253.51,-1.14,-2.01,57675
-0.0778,1.1696,8.345,0.3792,0.2715,9.7956,0.1588,-0.0037,0.0794,16.1,-5.7,-42,253.77,-1.21,-2.21,57777
-0.4896,0.3903,12.0584,0.3418,0.3709,9.7937,0.0721,-0.0232,0.1185,16.2,-5.5,-42,258.31,-1.92,-1.98,57879
-0.0443,0.9373,9.839,0.3337,0.6497,9.7794,0.0183,-0.3433,0.2321,16.2,-5.9,-41.8,258.44,-3.39,-1.74,57982
0.2885,0.7638,9.5062,0.5342,0.5668,9.7757,-0.1393,0.0721,0.226,15.9,-7.1,-41.7,255.82,-3.31,-3.13,58084
-0.1101,0.7063,8.7424,0.6402,0.5939,9.7677,-0.2346,0.0281,-0.0061,15.3,-8.1,-41.9,252.73,-3.47,-3.75,58186
-0.067,1.3012,8.4432,0.6113,0.7135,9.7615,0.2309,0.1246,0.0049,14.9,-8.4,-41.8,253.44,-3.77,-3.88,58288
-0.4657,1.0439,9.6726,0.4806,0.8462,9.7582,0.1307,-0.0208,-0.2346,14.9,-9,-42,252.39,-4.95,-2.82,58390
0.1915,0.9888,10.6015,0.4605,1.0805,9.7361,0.2969,0.0318,-0.16,15.1,-9.2,-42,253.79,-5.57,-2.81,58491
-0.6093,-0.0431,11.4203,0.2267,0.9115,9.7616,-0.4129,0.3763,-0.2517,15.5,-9.4,-41.7,254.62,-5.81,-1.78,58593
0.0012,0.1879,10.5967,0.1981,0.6648,9.7821,-0.4789,0.0281,0.0293,16,-8.9,-41.4,249.71,-3.89,-1.16,58696
0.1425,1.1384,8.3103,0.2312,0.4957,9.7914,-0.121,-0.0672,0.0599,16.3,-8.2,-41.4,251.35,-3.2,-1.33,58797
-0.1185,1.3264,8.6646,0.2635,0.4905,9.7908,-0.0977,-0.0513,-0.0098,16.6,-7.3,-41.8,254.83,-2.87,-1.54,58899
-0.1879,1.0594,10.5836,0.3535,0.519,9.7865,0.1833,-0.0049,0.2211,16.6,-6.8,-42.1,254.8,-2.72,-2.07,59002
0.2933,-0.334,10.7955,0.4888,0.5611,9.7784,0.1344,-0.0709,0.1393,16.4,-7.1,-42.1,255.83,-3.51,-2.28,59104
-0.1724,1.0965,7.9583,0.5115,0.4829,9.7814,0.3519,-0.0391,0.4264,15.9,-7.4,-42.3,254.71,-2.82,-2.99,59205
0.0886,0.729,9.4535,0.6771,0.5535,9.7676,-0.204,-0.0831,0.0684,15.3,-8,-42.5,252.36,-3.24,-3.97,59307
0.0084,1.2474,8.4671,0.6609,0.5828,9.767,0.1112,0.0916,-0.0452,14.8,-8.3,-42.6,252.82,-3.28,-4.17,59409
-0.0539,1.0223,10.7667,0.6462,0.7129,9.7593,0.1038,0.011,-0.1075,14.5,-8.9,-42.6,251.58,-4.17,-3.79,59511
0.5399,0.8571,11.2611,0.7061,0.9134,9.7385,0.2407,-0.1271,-0.1808,14.6,-9.1,-42.7,254.34,-5.34,-4.15,59613
-0.4513,0.0239,11.0409,0.5848,0.8786,9.7497,0.0037,0.1515,-0.2578,14.8,-9.2,-42.6,253.5,-5.14,-3.43,59716
0.0874,0.3771,8.412,0.4368,0.7997,9.7642,-0.1161,0.1674,-0.0941,15.2,-9.1,-42.6,252.94,-5.13,-2.54,59817
-0.3448,0.814,7.756,0.3076,0.5801,9.7846,-0.2004,0.2456,-0.0134,15.7,-8.3,-42.5,252.28,-3.39,-1.8,59919
0.1544,1.585,7.9787,0.2751,0.4831,9.7909,-0.0464,0.0379,0.1161,16.1,-7.7,-42.6,251.45,-2.97,-1.67,60022
-0.2538,0.8631,11.6753,0.3317,0.5166,9.7874,0.0134,-0.0538,0.1613,16.4,-7.3,-42.4,253.91,-2.82,-1.6,60124
-0.2562,-0.735,13.131,0.381,0.6129,9.7801,-0.0367,-0.0281,0.2871,16.3,-7.6,-42.3,252.96,-3.58,-2.23,60226
0.249,0.7087,7.7081,0.591,0.5214,9.7749,0.314,-0.1967,0.4533,15.8,-8.1,-42.5,252.57,-3.05,-3.46,60328
-0.3615,-0.0036,10.0461,0.5972,0.3046,9.7837,-0.0037,0.0379,0.1979,15.2,-8.5,-42.9,250.62,-2.33,-3.9,60430
-0.0599,1.4066,7.6327,0.5426,0.3771,9.7844,0.1063,0.2944,0.1344,14.7,-8.7,-43.1,246.98,-2.2,-3.17,60532
-0.0239,1.239,9.7276,0.4863,0.5389,9.7797,0.1234,0.0672,-0.1173,14.7,-9.3,-43.4,248.72,-3.15,-2.85,60634
-0.1401,0.9565,10.6578,0.5389,0.6699,9.7689,-0.0757,-0.0929,-0.2334,14.9,-9.5,-43.2,250.14,-3.72,-3.08,60736
-0.4262,-0.6093,12.1925,0.4589,0.3748,9.7887,-0.4753,0.1429,-0.3519,14.9,-9.5,-43,247.74,-2.57,-3.18,60838
-0.0946,0.2717,7.6411,0.3347,0.4385,9.7911,-0.1087,0.1124,-0.0195,15.2,-9.1,-42.8,247.65,-2.9,-2.2,60940
-0.4573,1.0116,8.2851,0.3001,0.3792,9.7947,0.0024,0.171,-0.0415,15.6,-8.3,-43,249.85,-2.22,-1.76,61041
0.1724,1.2989,8.8957,0.2668,0.428,9.7937,0.0904,-0.0391,0.0171,15.8,-8,-43.2,250.08,-2.4,-1.52,61143
-0.3112,0.5662,11.4168,0.1953,0.546,9.7895,0.1185,-0.0489,0.1112,16.1,-8,-43.4,250.87,-2.93,-0.99,61245
-0.5327,-0.486,13.2782,0.3024,0.5528,9.7864,-0.3042,-0.2859,0.1381,16.2,-8.5,-43,252.11,-3.23,-1.77,61348
-0.1041,0.8499,8.1906,0.4235,0.5877,9.7799,-0.1332,-0.215,0.0195,16.2,-9,-42.4,249.38,-3.31,-2.11,61450
-0.5519,0.5662,8.3438,0.3208,0.3902,9.7936,-0.2224,0.3067,-0.0208,15.6,-9.4,-42.1,247.08,-2.28,-1.88,61552
-0.1496,1.1277,8.3629,0.3648,0.3399,9.794,0.0244,0.0134,0.0354,15.5,-9.3,-42.1,246.54,-1.93,-2.09,61654
-0.3112,0.7913,10.4651,0.3545,0.4438,9.7902,0.1784,0.0415,-0.2651,15.5,-8.9,-42.4,247.3,-2.26,-2.19,61755
-0.5842,0.0862,11.133,0.4669,0.587,9.7779,0.182,-0.1222,-0.3348,15.6,-8.8,-42.5,249.53,-3.35,-2.18,61857
-0.8092,-0.5806,12.4618,0.2011,0.217,9.8022,-0.5412,0.441,-0.16,15.6,-8.4,-42.4,249,-1.88,-1.77,61960
0.1077,0.7015,7.938,0.1254,0.2933,9.8015,-0.1075,-0.0672,0.2236,16,-8,-42.1,248.25,-1.93,-0.69,62062
-0.1257,0.5818,8.7759,0.1667,0.2368,9.8024,0.0599,-0.0476,0.0012,16.4,-7.3,-42.1,250.13,-1.37,-0.81,62163
-0.255,1.1313,8.0481,0.1188,0.3406,9.8,0.121,0.0745,-0.0086,16.7,-7.2,-41.8,252.43,-1.99,-0.69,62265
-0.4812,0.4046,11.8716,0.1806,0.3935,9.7971,0.1576,-0.281,0.3079,16.7,-7.4,-41.8,253.33,-2.3,-1.06,62368
-0.7661,-0.929,14.0456,0.553,0.3707,9.784,-0.1368,-0.0452,0.2529,16.2,-8.1,-42,250.65,-2.17,-3.23,62470
0.2167,1.3288,7.7644,0.6023,0.5512,9.7726,0.3189,-0.1491,0.237,15.6,-8.7,-42.4,249.34,-2.91,-3.19,62571
-0.2011,0.4513,9.1566,0.4806,0.4867,9.7828,0.0977,0.1967,-0.1772,14.6,-9.4,-43.1,248.03,-2.84,-2.81,62674
-0.3196,1.2833,7.3275,0.3645,0.5978,9.7816,0.1576,0.0269,-0.0672,14.6,-9.6,-43.3,245.22,-3.07,-2.3,62775
-0.7614,0.6357,10.7955,0.373,0.7457,9.7711,0.1393,-0.0403,-0.1662,14.9,-9.7,-43.1,246.45,-3.82,-1.89,62878
-0.1197,0.516,10.3597,0.4227,0.8859,9.7574,0.0171,-0.1258,-0.2346,15.3,-9.9,-42.9,249.83,-5.16,-2.34,62979
-0.1724,0.5674,9.7899,0.2739,0.6231,9.783,-0.0684,-0.0037,-0.1051,15.6,-9.6,-42.4,246.85,-3.64,-1.6,63081
0.3112,1.0211,8.3175,0.2919,0.3789,9.795,0.0257,0.121,-0.0195,15.7,-8.6,-42.6,246.95,-2.21,-1.71,63183
-0.3926,0.9864,8.7029,0.2249,0.3564,9.7976,-0.0538,0.0428,-0.0745,15.8,-7.6,-42.5,249.11,-2.07,-1.39,63285
-0.2454,1.0068,9.7995,0.236,0.4334,9.7942,-0.0098,0.0489,-0.0147,16.1,-7,-42.5,253.14,-2.53,-1.38,63387
-0.0886,1.0355,11.06,0.2168,0.5993,9.7859,0.2407,-0.0513,0.1662,16.2,-6.9,-42.1,255.29,-3.5,-1.27,63489
-0.4992,-0.9254,13.8768,0.4193,0.3959,9.7897,-0.4484,-0.4423,-0.0293,16.2,-7.3,-42.2,255.21,-3.29,-2.02,63591
-0.249,0.8116,8.4599,0.5802,0.4468,9.7793,0.0476,-0.2443,0.0929,15.8,-7.5,-42.8,254.58,-2.68,-2.97,63694
-0.1556,0.7338,8.9519,0.5834,0.3139,9.7842,-0.0012,-0.0183,-0.0049,15.4,-7.6,-43.1,249.27,-1.89,-3.3,63795
-0.2119,1.1576,8.3091,0.5087,0.3702,9.7864,0.1271,0.0867,0.0195,15,-7.5,-43.2,252.57,-2.16,-2.98,63897
-0.3675,0.2682,11.7926,0.4631,0.5559,9.7799,0.1894,-0.0941,-0.0843,14.9,-7.6,-43.1,250.81,-2.85,-2.57,64000
0.8859,0.4908,10.7835,0.48,0.7389,9.767,-0.2187,0.1136,-0.2627,15,-7.9,-43,254.09,-4.26,-2.65,64101
0.2801,0.7817,8.2444,0.3246,0.5082,9.7881,-0.2847,-0.0208,-0.0904,15.5,-8.1,-43.1,251.87,-3.09,-1.9,64203
0.1915,1.1456,7.4077,0.3466,0.28,9.7965,-0.1185,-0.0244,-0.033,15.8,-7.6,-42.6,248.82,-1.64,-2.03,64306
-0.4441,0.929,8.8071,0.3348,0.2333,9.7982,0.1515,-0.0586,0.0257,16,-6.8,-42.6,250.74,-1.22,-1.94,64407
-0.3089,0.6859,10.3118,0.3285,0.3345,9.7954,0.2615,-0.0415,0.1038,16,-6.2,-42.4,255.24,-1.95,-1.92,64510
-0.0658,0.8679,9.505,0.2624,0.7436,9.7749,0.4911,0.1833,0.2517,16.1,-6.4,-42.3,259.23,-3.74,-1.72,64611
-0.4106,0.2885,9.5864,0.3305,0.6161,9.7817,0.0195,-0.1564,0.1674,16.3,-7.6,-42.3,252.82,-3.6,-1.94,64714
-0.5507,0.0227,8.6682,0.4829,0.5504,9.7793,-0.2749,-0.1063,0.0782,16.1,-8.2,-42.4,253.3,-3.62,-2.68,64816
-0.1413,1.1672,8.6754,0.5682,0.4101,9.7816,-0.0819,-0.0819,0.0757,15.7,-8.4,-42.9,251.34,-2.4,-3.32,64918
-0.0024,1.5646,8.8765,0.5383,0.4319,9.7823,-0.0159,0.0538,-0.0953,15.2,-8.3,-43.1,250.59,-2.51,-3.29,65020
-0.1724,1.0582,11.3437,0.5564,0.5423,9.7758,0.3775,0.171,-0.1381,15.1,-7.9,-43.5,252,-3.17,-3.26,65121
-1.008,-0.6177,12.1745,0.374,0.5242,9.7855,-0.2651,0.2272,-0.2053,15.3,-7.9,-43.1,251.01,-3.06,-2.19,65224
0.2825,0.3891,8.9711,0.3607,0.4614,9.7891,-0.1014,-0.1429,-0.088,15.7,-7.4,-42.7,254.12,-2.7,-2.11,65325
-0.8464,0.8703,8.6407,0.3313,0.2297,9.7984,-0.1552,0.0098,-0.0819,16.1,-6.5,-42.3,253.89,-1.34,-1.94,65428
-0.2825,0.9397,9.335,0.3543,0.268,9.7966,0.1161,0.0831,0.1307,16.4,-5.7,-42.5,254.47,-1.57,-2.07,65530
-0.2155,0.3472,10.914,0.2697,0.4377,9.7932,0.2382,0.0757,0.171,16.4,-5.7,-42.6,256.59,-2.56,-1.58,65631
0.0108,-0.5866,11.9926,0.3498,0.7263,9.7735,-0.1381,-0.2407,0.1405,16.5,-6.7,-42.6,259.17,-4.72,-1.56,65734
0.2933,0.8631,7.9547,0.5449,0.7797,9.7604,0.1307,-0.1918,0.1503,16.1,-7.8,-42.6,255.85,-4.56,-3.2,65835
-0.4585,0.3819,8.8933,0.591,0.6195,9.7692,-0.3824,0.0391,-0.0147,15.6,-8.6,-42.8,251.17,-3.62,-3.46,65937
0.0311,1.4234,7.8422,0.5775,0.4794,9.7779,0.1161,0.0611,0.0843,15.3,-8.6,-42.8,248.41,-2.76,-3.53,66039
-0.0156,1.251,9.9443,0.6007,0.5579,9.7723,0.1014,-0.2089,-0.1759,15.1,-8.4,-42.8,252.37,-3.26,-3.52,66142
0.7482,0.8176,10.5524,0.6774,0.8288,9.7481,0.1246,-0.2285,-0.2004,15.1,-8.3,-42.8,256.12,-4.85,-3.97,66245
0.2047,0.5806,10.0556,0.5861,0.7292,9.7619,-0.3262,0.3262,-0.1906,15.1,-8.4,-42.8,255.59,-4.63,-3.87,66345
0.1233,0.6776,9.4966,0.55,0.6629,9.7687,-0.3763,0.0611,-0.1759,15.2,-8.2,-42.5,253.29,-3.88,-3.22,66448
-0.6764,1.0918,8.3809,0.4336,0.4981,9.7844,-0.1271,0.0012,-0.11,15.4,-7.6,-42.2,251.4,-3.16,-2.73,66550
-0.1963,1.0846,8.8933,0.4764,0.5221,9.7811,0.1258,-0.0195,0.0452,15.7,-6.7,-42.1,255.09,-3.05,-2.79,66651
-0.231,0.7805,12.4211,0.5648,0.6391,9.7695,0.2566,-0.2541,0.2627,15.8,-6.5,-42,259.79,-3.74,-3.31,66754
-0.0874,-0.6584,12.6043,0.6166,0.601,9.7688,-0.4728,0.0183,0.1808,15.6,-7.2,-42.2,258.52,-4.51,-3.47,66856
0.1293,0.8571,8.7951,0.6448,0.5624,9.7693,0.0855,-0.0916,0.3665,15.6,-7.7,-42.4,253.51,-3.49,-3.54,66957
-0.249,0.4932,8.904,0.511,0.3063,9.7885,-0.1686,0.1576,0.0867,15.3,-7.9,-42.5,248.65,-1.79,-2.99,67060
-0.3891,1.2641,8.1427,0.4059,0.3671,9.7914,0.1038,0.0953,0.0684,15.4,-7.8,-42.5,248.53,-1.86,-2.64,67161
-0.5351,0.3256,12.0021,0.3822,0.485,9.7872,0.1662,-0.0843,-0.1124,15.7,-7.8,-42.1,250.83,-2.66,-2.01,67264
0.8667,-0.097,10.9271,0.4717,0.6352,9.7747,0.1063,-0.1698,-0.0843,16,-8.4,-42,253.55,-3.71,-2.76,67366
-0.097,-0.0443,11.1977,0.3084,0.4454,9.7917,0.1515,0.0073,0.1026,16.1,-8.3,-41.8,250.57,-2.6,-1.8,67468
0.3256,0.6225,8.8573,0.2095,0.3006,9.7998,-0.0086,0.0965,-0.0244,16.2,-8.1,-41.5,248.62,-1.88,-1.44,67569
-0.2885,0.9864,8.8406,0.1827,0.2839,9.8008,-0.0367,-0.0195,-0.0476,16.6,-7.4,-41.1,251.46,-1.5,-0.98,67671
-0.2885,0.8033,10.0221,0.2009,0.3918,9.7968,0.0415,0.0049,0.0024,16.8,-7.2,-41.3,253.24,-2.29,-1.17,67773
-0.7877,0.8571,11.4958,0.2696,0.6768,9.7796,0.4019,0.3702,0.2834,16.8,-7.3,-41.5,254.65,-2.88,-1.48,67875
-0.5495,0.0455,10.4842,0.2242,0.6564,9.7821,-0.237,-0.1051,0.1576,16.8,-8.3,-41.3,253.98,-4.07,-1.04,67978
-0.0431,0.6931,8.8573,0.4268,0.5643,9.7811,-0.1784,-0.16,-0.0611,16.7,-8.9,-41.4,250.84,-3.59,-2.23,68079
-0.8296,1.0475,8.4815,0.3979,0.2958,9.7941,0.1087,-0.0916,0.0941,16.3,-9,-41.6,246.34,-1.73,-2.33,68182
-0.4549,0.9948,9.3518,0.4188,0.3709,9.7907,-0.0159,-0.0147,0.0464,15.9,-8.8,-41.9,247.24,-2.22,-2.24,68284
-0.3328,0.1508,11.8321,0.4111,0.5443,9.7829,0.0843,-0.0183,-0.1967,15.6,-8.4,-41.7,251.59,-2.84,-2.57,68386
-0.5818,-0.9014,11.4251,0.4454,0.5793,9.7794,-0.3592,0.1161,-0.4362,15.7,-8.7,-41.6,249.9,-3.39,-2.61,68487
0.17,0.3938,8.3294,0.3048,0.3755,9.7947,-0.2761,0.0342,-0.1038,16,-8.1,-41.4,249.53,-2.19,-1.78,68589
0.0192,0.8835,8.0864,0.2822,0.1179,9.8019,-0.1833,-0.0122,-0.0464,16.3,-7.5,-41.2,249.54,-0.81,-1.74,68692
-0.1401,1.2366,7.5274,0.3609,0.0803,9.7997,0.077,-0.1429,0.1112,16.4,-6.1,-41.3,252.05,-0.47,-2.11,68794
-0.2167,0.5112,11.0672,0.4902,0.0541,9.7942,0.1649,-0.0293,0.1148,16.3,-5.8,-41.6,252.29,-0.36,-2.71,68896
-0.3053,0.2155,12.536,0.5592,0.3088,9.7858,0.4362,-0.044,0.2529,16,-5.6,-41.8,254.09,-1.09,-3.2,68997
-0.7961,-0.7242,12.7898,0.6346,0.2593,9.7827,-0.1185,0.0452,0.2053,15.4,-6.3,-42,254.47,-1.52,-3.71,69100
-0.2478,-0.0407,9.9084,0.8127,0.3235,9.7676,-0.4142,0,-0.1356,14.8,-7.3,-42.5,252.94,-1.89,-4.76,69202
-0.0443,0.6776,8.8849,0.7777,0.2013,9.7737,0.0342,0.0354,-0.0122,14.5,-7.7,-43,248.75,-1.11,-4.73,69303
0.0359,1.1839,8.7592,0.6866,0.4669,9.7714,0.2236,0.0696,-0.0586,14.3,-7.7,-43.5,249.92,-2.38,-4.19,69405
0.2167,0.5698,11.0061,0.6212,0.7477,9.7584,0.3299,0.0733,-0.2065,14.6,-8,-43,254.9,-4.37,-3.64,69508
-0.5327,-0.5195,11.5089,0.4592,0.6372,9.7751,-0.5559,0.1429,-0.3286,15,-8.3,-42.6,255.83,-4.85,-3.37,69610
0.2658,0.3472,10.2304,0.4858,0.3123,9.7896,-0.2334,-0.1271,-0.0379,15.7,-7.8,-42.1,251.09,-2.52,-2.81,69711
0.152,1.069,8.0349,0.4649,0.165,9.7942,-0.1991,-0.0208,-0.0428,15.8,-6.9,-42.2,251.33,-1.3,-2.68,69814
-0.0575,1.1708,8.9316,0.4994,0.2099,9.7917,0.0574,0.1723,0.0904,15.9,-5.7,-42.3,254.23,-1.23,-2.92,69916
-0.3579,0.3531,11.0289,0.4067,0.4275,9.7889,0.2053,0.0379,0.121,15.8,-5.4,-42.4,258.21,-1.82,-2.29,70018
1.0092,-0.814,11.9938,0.4426,0.6658,9.774,-0.0672,-0.2407,0.171,15.9,-6.4,-42.3,259.9,-3.89,-2.59,70119
0.4417,0.6225,8.3797,0.4542,0.5546,9.7804,0.0232,0.011,0.1063,15.9,-7.2,-42.2,254.9,-2.93,-2.91,70224
-0.0802,0.3891,9.0046,0.5589,0.3705,9.7837,-0.3018,-0.1918,0.0733,15.8,-8,-42.5,250.67,-2.17,-3.27,70325
-0.2969,1.2594,8.0924,0.5853,0.4055,9.7808,0.11,0.1332,0.1246,15.3,-7.9,-43.2,250.37,-2.37,-3.42,70428
-0.3244,1.2151,9.5026,0.5288,0.5146,9.7788,0.0098,-0.0403,-0.0965,15,-7.9,-43.6,251.74,-3.01,-3.1,70532
0.7087,0.6752,10.3789,0.5578,0.636,9.7701,-0.0037,-0.0428,-0.1796,14.8,-8.2,-43.9,253.47,-3.72,-3.27,70629
-0.3448,-0.5016,11.4646,0.428,0.4135,9.7886,-0.4032,0.2981,-0.1869,15,-8.2,-44,251.35,-2.91,-2.86,70731
-0.3448,-0.5016,11.4646,0.428,0.4135,9.7886,-0.4032,0.2981,-0.1869,15,-8.2,-44,251.35,-2.91,-2.86,70833
-0.3196,0.9732,9.4104,0.5145,0.1647,9.7918,-0.0855,-0.0648,0.1979,15.4,-7.1,-43.3,249.95,-0.96,-3.01,70936
0.0658,1.1612,9.1542,0.5653,0.1913,9.7885,0.204,-0.0892,0.3286,15.3,-6.9,-42.9,249.78,-0.86,-3.07,71038
0.0443,0.5543,12.323,0.6288,0.4808,9.7747,0.1686,0.0635,0.2382,14.6,-7.4,-42.6,254.45,-2.81,-3.68,71139
0.1161,-0.3543,10.8062,0.6859,0.6594,9.7604,-0.2859,-0.1503,0.292,14.3,-8.7,-42.5,250.8,-4.41,-3.75,71241
0.7195,0.8607,8.4683,0.7672,0.5557,9.7608,-0.4007,0.0977,-0.1124,13.8,-10.4,-43.2,246.27,-3.25,-4.49,71344
-0.1173,0.8332,8.7089,0.7028,0.2408,9.7785,-0.1515,-0.022,-0.0367,13.4,-10.9,-43.8,238.34,-1.41,-4.11,71446
0.3603,1.4533,8.0936,0.682,0.3114,9.7779,0.1869,-0.0672,-0.0281,13.3,-10.4,-44,240.8,-1.44,-3.88,71547
-0.0575,0.2825,11.2719,0.7934,0.4682,9.7633,0.3262,0.0709,-0.2431,13.3,-10.1,-43.5,244.07,-2.74,-4.65,71650
-0.0215,-0.7135,11.2647,0.6836,0.6147,9.7635,-0.0024,-0.0379,-0.3348,13.4,-10.1,-43.2,246.72,-4,-4.59,71751
0.753,0.8236,8.3091,0.4971,0.5232,9.7801,0.0403,-0.099,0.1649,13.9,-10,-43.3,244.44,-3.06,-2.91,71853
0.3974,0.7111,9.6211,0.4475,0.2846,9.7923,0.0073,0.0623,0.1014,14.3,-9.7,-43.2,241.26,-1.68,-2.65,71955
0.4609,1.4018,7.9416,0.3845,0.3152,9.794,0.099,0.0599,0.1002,14.9,-9.1,-43.3,245.4,-1.84,-2.25,72057
-0.0012,0.5136,10.5333,0.4671,0.354,9.7891,0.16,-0.0721,0.0415,14.9,-9.1,-43.1,245.85,-1.9,-2.6,72160
0.1281,0.4477,9.6486,0.4637,0.6462,9.7743,0.1258,0.2224,0.2138,14.7,-9.4,-43.4,249.45,-3.43,-3.02,72261
-0.4621,0.1401,9.3589,0.3998,0.4559,9.7879,-0.099,-0.4288,0.182,14.6,-10.1,-43.6,244.59,-2.66,-2.34,72363
-0.2095,0.3759,9.4272,0.6019,0.2532,9.7849,-0.2211,0.0281,0.0012,14.3,-10.4,-43.9,243.18,-1.87,-3.94,72466
-0.5914,1.1875,8.3486,0.5268,0.1975,9.7905,0.0464,0.1747,-0.0037,14,-10.2,-43.9,240.82,-1.15,-3.08,72567
-0.0515,1.1839,9.7624,0.4683,0.3168,9.7903,0.237,0.0464,-0.1038,13.9,-10,-44,241.88,-1.85,-2.74,72670
-0.9577,0.7242,11.4431,0.4061,0.5767,9.7813,0.1405,-0.0049,-0.3457,14.2,-10.1,-43.5,244.6,-3.37,-2.38,72771
0.0144,-0.0886,9.4128,0.4665,0.7246,9.7687,-0.2615,-0.0721,-0.4484,14.4,-10.4,-43.3,247.11,-4.42,-2.52,72873
-0.0383,0.419,7.7824,0.3632,0.3945,9.792,-0.237,-0.0635,-0.0745,14.8,-10,-42.9,243.76,-2.5,-2.03,72975
0.1808,1.063,7.9212,0.4334,0.2442,9.794,-0.0354,-0.0916,0.0281,15.1,-9.3,-42.8,244.78,-1.47,-2.41,73077
-0.1832,1.1241,8.345,0.3886,0.1801,9.7973,0.1258,0.0403,0,15.3,-8.1,-42.9,246.61,-1.05,-2.27,73180
-0.0994,0.5495,10.1766,0.4527,0.3596,9.7896,0.1772,-0.0929,0.1881,15.2,-7.7,-43,248.47,-1.83,-2.48,73281
0.3316,0.674,8.7819,0.4271,0.6195,9.7777,-0.3384,-0.1552,0.1759,15,-8.2,-42.9,252.52,-3.62,-2.5,73384
0.3591,0.6656,9.2859,0.603,0.3702,9.7811,-0.1234,-0.1124,0.2272,14.5,-9.2,-42.7,247.19,-2.16,-3.53,73486
-0.0251,0.6117,8.6886,0.6486,0.2285,9.7825,-0.2517,0.1869,-0.0318,14.1,-9.7,-42.8,242.78,-1.73,-4.01,73588
-0.2957,1.008,8.5461,0.5779,0.1598,9.7883,0.1148,0.2272,0.0379,13.7,-9.5,-43,243.28,-0.93,-3.38,73689
-0.1413,0.8906,9.4571,0.4532,0.2636,9.7926,0.0941,0.0391,-0.0635,13.6,-9.2,-43.3,243.8,-1.54,-2.65,73793
0.9086,0.668,10.7117,0.4819,0.4679,9.7836,0.3653,0.0428,0.1014,13.8,-9.3,-43.2,246.58,-2.74,-2.82,73894
0.1951,-0.2011,10.1538,0.5203,0.5808,9.7756,-0.4484,0.0757,-0.2346,14,-9.8,-42.9,246.36,-3.82,-3.19,73996
-0.267,-0.0814,9.59,0.524,0.3706,9.7856,0.0538,-0.0525,-0.0574,14,-10,-42.9,243.65,-2.56,-3.19,74098
0.3208,1.1061,7.7464,0.3927,0.2822,9.7947,0.055,0.2456,0.0586,14.1,-9.8,-42.7,241.11,-1.57,-2.7,74199
0.31,1.561,7.9416,0.2652,0.3763,9.7958,0.2346,0.0367,0.0476,14.5,-9.3,-42.6,244.72,-1.81,-1.61,74302
0.0072,1.2342,9.5014,0.2671,0.438,9.7932,0.1503,-0.0195,-0.0183,14.8,-9.1,-42.2,246.15,-2.56,-1.56,74403
-0.8236,-0.1951,10.5393,0.2676,0.7317,9.7757,0.1637,0.1894,0.2004,15.2,-9.9,-41.9,246.95,-4.28,-1.57,74505
0.0706,0.5363,9.9635,0.5475,0.6441,9.7701,0.0147,-0.3067,0.3409,15,-10.6,-42.1,243.93,-3.77,-2.6,74608
-0.1879,0.729,8.8597,0.6311,0.4014,9.7781,-0.2297,0.0782,-0.0843,14.2,-11.1,-42.4,240.82,-2.35,-3.69,74709
-0.5866,1.2007,8.5605,0.5483,0.2559,9.788,-0.1332,0.1576,-0.0244,13.8,-11,-42.6,238.87,-1.5,-3.21,74811
-0.0922,0.6333,9.8797,0.503,0.4264,9.7845,0.2126,0.0513,-0.1026,13.6,-10.4,-43.2,243.27,-2.49,-2.94,74913
0.2753,0.3711,10.4543,0.5108,0.6522,9.7716,0.2089,-0.1759,-0.1356,13.8,-10.1,-43.2,245.03,-3.29,-3,75017
0.2873,-0.4788,12.7168,0.4804,0.374,9.7877,-0.5962,0.1698,-0.4887,14,-10.2,-42.9,244.24,-2.92,-3.02,75117
0.8535,0.1257,9.572,0.4924,0.2223,9.7918,-0.4227,0.1161,-0.055,14.1,-9.9,-42.7,242.36,-2.01,-3.04,75220
0.0347,0.7949,8.2073,0.3994,0.1694,9.797,-0.0476,0.022,-0.0586,14.5,-8.9,-42.9,243.72,-0.99,-2.33,75322
0.1365,1.1815,9.7767,0.3877,0.2623,9.7955,0.0342,0.0965,-0.099,14.9,-8.3,-42.3,247.52,-1.53,-2.27,75424
-0.1712,0.7183,12.9167,0.4435,0.4507,9.7862,0.248,-0.2004,-0.022,15.1,-8.3,-42.3,248.68,-2.08,-2.23,75526
-1.2342,-0.8811,12.3756,0.4303,0.6124,9.778,-0.3861,-0.2883,-0.1576,15.1,-8.9,-42.1,249.17,-3.58,-2.52,75627
-0.0491,0.5483,8.3653,0.6649,0.4328,9.7745,-0.369,-0.0623,-0.1368,14.8,-9.2,-42.6,248.78,-2.9,-3.6,75729
-1.0403,0.3543,9.3111,0.6307,0.2699,9.7826,-0.0757,0.0098,-0.0208,14.4,-9,-42.9,244.9,-1.58,-3.69,75831
-0.3041,1.1384,8.169,0.5299,0.3642,9.7855,0.1478,0.0806,0.0403,14,-8.5,-43.3,248.1,-1.91,-3.21,75934
-0.1245,0.1772,11.7196,0.4888,0.5052,9.7814,0.1857,-0.0611,-0.2089,14.1,-8.3,-43.8,250.4,-2.95,-2.86,76036
1.3659,-0.0347,9.4248,0.4739,0.6286,9.775,0.1112,0.0415,-0.1185,14.3,-8.6,-43.8,249.02,-3.73,-2.73,76138
0.9349,0.5303,7.0856,0.3607,0.3294,9.7945,0.2395,0.0696,0.1417,14.6,-8.3,-43.2,247.88,-1.72,-2.08,76239
0.1018,0.3926,8.9842,0.4161,0.076,9.7975,-0.066,0.055,0.0892,14.8,-7.8,-43.3,246.03,-0.63,-2.6,76342
0.2167,0.9218,9.0046,0.5054,0.0666,9.7934,0.1344,-0.0012,0.0745,14.9,-6.6,-43.7,247.93,-0.07,-2.82,76444
-0.0563,0.4286,10.8122,0.5017,0.1481,9.7927,0.0904,-0.0208,-0.0073,14.7,-6.3,-44.5,252.76,-0.87,-2.93,76545
-0.0922,0.8272,9.6558,0.5224,0.4569,9.7821,0.3873,-0.0354,0.1307,14.5,-6.5,-44.8,257.23,-2.67,-3.06,76647
-0.1532,-0.0431,10.2364,0.7049,0.431,9.7718,0.2248,-0.0183,0.226,14.2,-7.3,-45,253.59,-2.52,-4.13,76750
-0.6081,0.2933,8.2468,0.7002,0.4809,9.7698,-0.0293,0.0122,0.0269,14,-7.8,-45.2,251.61,-2.97,-4.12,76852
-0.2131,0.7242,8.4695,0.7012,0.4056,9.7731,0.0183,0,0.0195,13.7,-8.2,-45,250.2,-2.33,-4.19,76954
-0.0431,1.0774,8.1008,0.6137,0.4493,9.7771,-0.0574,0.1002,-0.0977,13.5,-8.3,-44.9,250.57,-2.64,-3.76,77055
0.1317,0.6895,12.7767,0.6305,0.515,9.7728,0.1307,-0.1686,-0.1368,13.6,-8.4,-44.7,251.4,-3.01,-3.69,77157
1.0702,-0.2873,10.5429,0.6261,0.7059,9.7612,-0.639,0.0098,-0.4129,13.7,-8.5,-44.4,253.78,-4.13,-3.67,77259
0.4633,0.1365,8.837,0.4545,0.3628,9.7894,-0.391,-0.1796,-0.1319,14.1,-7.9,-44,248.25,-2.12,-2.66,77362
0.0515,1.1899,7.8458,0.5298,0.1492,9.7912,-0.0354,0.0513,-0.0452,14.2,-6.9,-43.6,248.81,-0.87,-3.1,77464
-0.0718,1.0606,8.5258,0.5337,0.1761,9.7905,0.1222,-0.0415,-0.0403,14.5,-6,-43.6,253.26,-1.03,-3.12,77566
-0.3891,0.3519,12.3313,0.4644,0.2856,9.7915,0.0794,-0.1283,0.1442,14.6,-5.7,-43.1,254.35,-1.67,-2.72,77667
1.002,0.1592,9.1746,0.5429,0.4974,9.779,-0.3567,-0.5889,0.1405,14.6,-6.2,-43.3,256.99,-2.73,-3.02,77769
1.1756,1.0463,8.0469,0.7981,0.3365,9.7683,0.1552,0.0379,0.3054,14.2,-7.1,-43.3,252.32,-1.97,-4.67,77871
-0.2274,-0.1999,8.819,0.8301,0.227,9.7688,-0.0342,-0.055,-0.0269,13.8,-7.6,-43.5,248.31,-1.41,-4.77,77973
0.0419,0.9852,7.3454,0.8174,0.3655,9.7657,0.2382,-0.033,-0.0244,13.2,-7.6,-43.7,248.94,-2.14,-4.78,78076
-0.3364,0.7602,9.918,0.7932,0.5213,9.7606,0.0501,0.0269,-0.1686,13.1,-7.7,-43.9,250.31,-2.76,-4.73,78177
1.063,-0.1101,10.2256,0.8872,0.7054,9.7409,0.215,-0.1112,-0.193,13.1,-7.8,-43.9,252.68,-3.71,-4.94,78279
-0.1712,-0.1377,10.9223,0.5996,0.4981,9.7756,0.1283,0.2639,0.066,13.3,-7.8,-43.6,250.74,-3.06,-4.37,78382
0.31,-0.1999,10.343,0.6896,0.2868,9.7782,-0.0354,0.0281,0.204,13.8,-7.4,-43.4,251.73,-1.93,-3.92,78484
0.5207,1.1564,8.685,0.6917,0.2811,9.7782,-0.0024,-0.0428,0.1674,14.2,-6.8,-43.3,251.17,-1.64,-4.05,78586
0.4669,1.3862,9.5996,0.6951,0.4423,9.772,0.1674,0.0721,0.055,14.2,-6.9,-43.1,252.6,-2.25,-4.14,78688
-0.1975,0.674,9.3506,0.6581,0.6873,9.7604,0.54,0.3311,0.2468,14,-7.5,-43,256.52,-4.02,-3.86,78790
-0.0479,-0.2646,11.8716,0.6608,0.7965,9.7519,-0.2456,-0.226,0.1625,14,-8.4,-42.7,255.52,-5.02,-3.51,78892
0.8691,0.9553,8.1475,0.8288,0.7994,9.7388,-0.2529,-0.0684,-0.0367,13.8,-9.3,-42.6,252.42,-4.68,-4.86,78993
-0.018,0.0922,9.3817,0.7406,0.2835,9.7745,-0.2285,0.2602,-0.0586,13.5,-9.4,-42.6,246.65,-2.04,-4.58,79096
-0.7458,0.7721,9.0046,0.2825,0.1501,9.8014,0.0501,0.5437,0.1625,13.5,-8.7,-42.7,242.89,-1.16,-2.55,79197
0.4298,0.4609,11.309,0.1617,0.074,9.805,-0.044,-0.2944,-0.1136,14.4,-7.7,-42.3,242.39,-0.43,-0.94,79300
-0.1389,-0.6033,10.7679,0.213,0.3654,9.7975,-0.4398,0.3286,-0.4276,15,-7.6,-42.1,247.96,-2.14,-1.25,79402
0.6668,0.4429,9.0573,-0.0908,0.1764,9.8046,0.066,0.2786,0.1087,15.7,-7.5,-41.6,248.21,-1.03,0.53,79504
0.4741,1.4162,7.5633,-0.2911,0.3017,9.7977,-0.0037,0.0513,0.1454,16.5,-7.6,-40.9,246.93,-1.76,1.7,79605
-0.4729,1.2809,8.8178,-0.3854,0.3285,9.7936,0.1368,-0.0195,0.0122,17.2,-7.5,-40.5,249.92,-1.92,2.25,79707
-1.1289,0.9433,9.9575,-0.3368,0.5484,9.7855,0.1881,0.1772,0.1918,17.6,-7.8,-40.2,251.01,-3.21,1.97,79810
-0.5962,1.5407,9.9359,-0.1773,0.788,9.7733,0.3335,-0.2468,0.3567,17.7,-8.4,-40.2,253.12,-4.01,1.47,79912
-1.3791,0.1556,10.0257,0.0054,0.3642,9.7999,-0.2199,0.11,0.3213,17.1,-9,-40.4,246.2,-2.13,-0.03,80013
-0.7781,0.5399,8.9878,0.1362,0.3293,9.8002,-0.3922,0.2224,-0.0367,16.5,-9.3,-40.3,247.98,-2.61,-1.09,80115
-0.7841,0.929,8.5557,0.0587,0.339,9.8006,0.1112,-0.0464,-0.0159,15.9,-9.2,-40.8,244.98,-1.98,-0.34,80218
-0.6033,1.3958,8.7628,-0.0169,0.5114,9.7933,0.1796,-0.1014,-0.1918,15.9,-9.2,-41,245.95,-2.66,0.17,80319
-0.8547,0.6249,11.9973,0.1315,0.7147,9.7797,0.4972,-0.2786,-0.1613,16.1,-9.3,-41.2,250.06,-4.18,-0.77,80422
-0.8056,-0.7386,11.7699,0.2034,0.8362,9.7688,-0.0098,0.3335,-0.1051,15.8,-9.8,-41,248.91,-4.89,-1.19,80524
-0.5076,0.5435,9.4523,-0.101,0.6421,9.7851,-0.2969,0.1429,-0.16,15.9,-9.7,-41,244.94,-3.75,0.59,80626
-0.4226,1.482,7.0868,-0.307,0.532,9.7874,-0.033,-0.0501,-0.0501,16.3,-9.1,-41,245.22,-3.05,1.84,80727
-0.7003,0.759,8.8813,-0.2696,0.581,9.7857,-0.0208,-0.9566,-0.0195,17.3,-8.2,-41.1,250.78,-3.4,1.58,80829
-0.9433,0.1915,9.7923,0.0112,0.6013,9.7882,0.077,0.2187,0.4252,17.3,-7.7,-40.9,252.25,-3.39,-0.57,80932
-0.3771,-1.233,13.647,0.1071,0.4165,9.7972,-0.1185,-0.5131,0.0806,16.9,-8,-40.8,250.26,-2.43,-0.63,81034
0.31,0.9732,8.254,0.1239,0.3547,9.7995,0.1881,-0.2187,0.2456,16.3,-8.1,-40.7,247.39,-1.69,-0.43,81136
-0.8296,0.3831,8.7257,-0.0608,0.0515,9.8063,-0.5327,0.3836,-0.1381,15.9,-8.4,-41.1,245.16,-0.73,-0.21,81238
-1.0499,0.7075,7.7943,-0.1338,0.1226,9.805,0.1478,0.204,0.1197,15.9,-8.2,-41.2,243.94,-0.47,0.47,81340
-0.899,0.7697,9.4056,-0.1356,0.178,9.8041,0.0929,-0.4264,-0.1491,16.2,-8.2,-41.4,244.21,-0.9,1.09,81442
-0.0994,0.5614,10.4435,0.1029,0.395,9.7982,0.4215,-0.0061,-0.0232,16.4,-8.2,-41.4,248.87,-2.31,-0.6,81544
-0.8871,-0.5327,10.4423,-0.0513,0.3064,9.8017,-0.0195,0.3335,-0.2162,16.3,-8.4,-41.4,246.02,-1.16,-0.17,81645
-0.9218,-0.1053,10.1658,-0.0687,0.1156,9.8057,-0.5388,0.2712,-0.2749,16.3,-8.1,-41.5,244.44,-0.68,0.4,81747
-0.4058,0.9014,8.1379,-0.1252,0.1414,9.8048,0.0806,-0.0831,-0.0281,16.7,-7.4,-41.4,248.76,-0.83,0.73,81850
-0.5064,0.7997,10.1514,-0.1015,0.2181,9.8037,0.0415,0.0183,-0.0232,17.1,-7,-41.3,249.85,-1.27,0.59,81952
-3.699,-0.1353,10.6662,0.1144,0.6751,9.7827,0.6304,-1.1912,-0.1307,17.3,-7.1,-41.3,254.19,-3.24,0.75,82054
-2.4912,-1.9261,10.6039,0.2534,0.54,9.7885,-0.2089,0.0098,0.4924,16.9,-7.7,-41.3,252.32,-3.16,-1.48,82155
0.8942,0.9493,10.4818,0.4513,0.1374,9.7953,0.1051,0.1772,0.6121,16.3,-8.1,-41.7,247.5,-0.8,-2.64,82258
-0.3591,1.3719,7.9452,-0.3598,0.7657,9.7701,0.9835,0.27,-0.0684,15.8,-9.1,-41.4,248.42,-4.48,2.11,82360
-0.8882,2.9904,8.1403,-0.2057,2.0201,9.5941,0.6976,0.0073,-0.1087,16.8,-12.6,-40,254.72,-11.89,1.23,82488
-0.7721,2.8575,11.4036,-0.0447,2.4884,9.4856,0.7318,-0.4704,-0.0782,17.2,-13.8,-39.2,257.83,-14.7,0.27,82563
0.5303,2.5007,11.3485,0.146,2.7758,9.4045,-0.4105,-0.033,-0.3604,17.1,-15.7,-38.4,255.91,-16.79,-0.97,82666
0.8547,3.0227,7.2676,0.1961,2.7418,9.4135,-0.1014,-0.2028,0.0098,16.6,-17.3,-38.2,251.94,-16.24,-1.19,82768
-0.0443,2.9999,5.545,0.012,2.2397,9.5475,-0.6194,-0.204,-0.0061,16.5,-17.2,-38.2,246.77,-13.93,-0.26,82870
-0.4154,2.1201,7.3957,0.0351,1.4785,9.6945,-0.9297,0.1161,-0.1026,16.6,-15.4,-38.9,242.41,-8.67,-0.21,82972
-1.4557,0.4166,11.7795,-0.1916,0.4099,9.7962,-0.9615,0.1393,-0.044,17,-12.2,-39.3,240.96,-4.13,0.78,83074
-0.0862,0.7901,9.4631,0.2162,0.3744,9.7971,-0.215,-0.4899,0.1356,17.1,-9.5,-40.4,246.5,-2.06,-0.57,83176
-0.2011,0.4645,8.7879,0.4203,0.0322,9.7976,-0.3555,-0.1319,0.1979,16.8,-7.6,-41.1,246.24,0.37,-2.49,83277
-0.7075,-0.0192,8.667,0.5075,0.1859,9.7917,-0.2957,0.1283,-0.2309,15.7,-7.1,-42,251.09,-1.09,-2.97,83380
-1.0283,0.486,8.4276,0.5041,0.2149,9.7913,0.1246,0.2407,-0.066,15.1,-7.3,-42.2,250.42,-1.26,-2.95,83483
-0.1221,1.5131,8.5234,0.3647,0.4839,9.7879,0.2529,-0.0122,-0.0684,15,-7.9,-41.9,249.18,-2.34,-2.16,83584
-0.2969,0.1317,11.1785,0.4074,0.4937,9.7857,0.044,-0.0513,-0.336,15.3,-8.2,-41.6,250.55,-2.89,-2.38,83686
0.1425,-0.7374,12.0811,0.5411,0.4005,9.7835,-0.2993,-0.0305,-0.2101,15.5,-8,-41.9,250.95,-2.34,-3.17,83788
-0.1724,0.4298,9.1016,0.4024,0.1788,9.7968,-0.4264,0.2138,-0.1234,15.4,-7.5,-42.2,252.08,-2.05,-2.84,83890
-1.1516,0.4764,8.8969,0.0195,0.0185,9.8066,-0.1197,0.6329,0.011,15.9,-6.3,-42,249.79,-0.11,-0.11,83993
0.5076,1.4401,8.0302,-0.2027,0.1827,9.8029,0.2676,0.2712,0.0709,16.5,-5.8,-41.7,251.36,-0.6,0.72,84096
-1.5634,-0.243,7.3957,-0.0486,0.3113,9.8016,0.3983,-0.6426,0.8137,17.4,-5.7,-41.3,254.39,-1.82,0.28,84195
1.5778,0.1113,11.376,0.4129,0.198,9.796,-0.1991,-0.0892,0.6316,17.2,-6.6,-41.4,253.23,-1.84,-2.73,84297
-1.506,-0.3543,9.5565,0.3509,0.3646,9.7936,0.8369,-0.1979,0.8381,16.7,-7.4,-41.7,250.61,-0.78,-1.75,84399
-0.8583,0.8775,8.3019,0.3416,0.5193,9.7869,-0.1014,0.16,-0.1491,15.8,-9.2,-41.7,248.73,-3.04,-2,84502
-0.3196,1.8244,7.586,0.263,0.6493,9.7816,0.1442,0.1491,-0.0831,15.8,-10.3,-41.4,246.9,-3.8,-1.54,84604
-0.3986,1.2414,10.2197,0.252,0.7116,9.7775,0.0134,-0.088,-0.2395,15.8,-11.1,-41.2,244.4,-4.05,-1.28,84706
-0.2155,0.3855,11.6765,0.3661,0.7641,9.77,-0.0525,-0.0611,-0.4019,15.9,-11,-41.5,245.63,-4.34,-2.06,84808
-0.3915,-0.0144,8.3139,0.2728,0.5876,9.7852,0.1955,0.4239,0.077,16.2,-10.2,-41.3,246.21,-3.44,-1.6,84909
-0.5447,0.2263,10.6003,0.024,0.4272,9.7973,-0.4948,0.0342,-0.2187,16.7,-9.4,-41.3,247.72,-2.77,-0.17,85012
-0.4812,1.5048,8.8765,0.07,0.7292,9.7792,0.303,-0.0843,0.1051,17.3,-8.4,-40.8,254.06,-4.26,-0.41,85114
-0.2729,1.9716,8.4013,0.1652,1.122,9.7409,0.1943,-0.292,0.1087,17.5,-8.7,-40.7,255.83,-6.04,-0.61,85215
-0.6524,1.4928,10.5153,0.4824,1.4942,9.6801,0.336,-0.3213,0.2358,16.8,-10.2,-40.9,256.99,-7.94,-2.59,85318
-0.0048,0.5327,13.1047,0.715,1.2871,9.6955,-0.5241,-0.2712,0.171,16.3,-11.7,-41.3,251.74,-8.23,-3.84,85420
1.1983,2.3774,7.9296,0.6221,1.221,9.7104,-0.5962,0.2651,-0.1576,15.3,-12.8,-41.3,246.81,-7.58,-3.98,85522
-0.0778,1.6831,7.7776,0.572,1.0435,9.7342,-0.055,0.1478,-0.2016,14.7,-13.1,-41.4,243.5,-6.11,-3.36,85624
0.0694,2.2242,7.7895,0.5423,1.1879,9.7193,0.2847,-0.1161,-0.0648,14.7,-12.6,-41.4,245.01,-6.96,-3.19,85725
-0.2897,0.7661,12.5313,0.7088,1.2143,9.7053,0.1368,-0.1955,-0.3445,14.9,-12.4,-41.3,248.26,-6.99,-3.81,85827
-0.8332,-0.7003,13.1083,0.6074,1.0803,9.728,-0.628,0.2639,-0.5583,14.9,-12,-41.4,246.77,-6.32,-3.57,85929
0.9182,1.4844,7.0749,0.3912,0.9602,9.7517,0.2505,0.1332,0.1906,15.3,-11.2,-41.3,246.72,-5.36,-2.38,86032
0.079,1.5443,7.78,0.27,0.5904,9.7851,-0.0024,0.1637,0.1319,15.8,-9.5,-41.7,249.37,-3.43,-1.74,86133
-0.3675,1.4724,8.4886,0.2603,0.641,9.7822,0.1319,0.0403,0.1319,16.3,-8.7,-41.5,249.34,-3.55,-1.66,86235
-0.729,1.0606,9.8893,0.1829,0.7211,9.7784,0.0305,0.1148,-0.1112,16.6,-8.3,-41.4,254.32,-4.22,-1.07,86337
-0.5435,1.2677,10.2615,0.1223,0.9173,9.7629,0.4129,-0.1625,0.3164,16.8,-8.5,-41,254.54,-4.49,-0.37,86440
-0.6572,0.1125,9.5122,0.4131,0.7221,9.7713,0.3457,0.0134,0.4178,16.7,-8.9,-40.9,252.19,-4.22,-2.42,86542
-0.5207,0.2274,8.9555,0.3502,0.6043,9.7817,-0.5571,0.0745,-0.2382,16.6,-9.1,-40.9,252.74,-4.56,-2.18,86644
-0.9361,0.6991,8.3725,0.4409,0.4978,9.7841,0.0733,0.033,-0.0794,16.1,-8.7,-40.9,248.72,-2.91,-2.58,86746
-0.4238,0.4992,11.1749,0.5166,0.6548,9.7711,0.0538,-0.2773,-0.2602,15.8,-8.2,-41.4,253.7,-3.83,-3.03,86847
0.2646,0.6931,11.303,0.6659,1.0042,9.7323,0.43,-0.099,-0.1515,15.5,-8.1,-41.4,256.76,-5.13,-3.87,86950
-0.2741,-0.1556,11.5724,0.6124,0.9281,9.7434,-0.3653,0.1038,-0.4997,15,-8.5,-42,256.93,-5.43,-3.6,87051
1.0104,0.814,8.497,0.3651,0.564,9.7836,-0.5852,-0.0367,-0.1429,15.1,-8.1,-41.9,253.21,-4.12,-2.18,87154
-0.0718,1.2306,7.9296,0.282,0.2681,9.7989,0.0977,-0.0024,-0.0024,15.8,-6.5,-41.7,254.21,-1.57,-1.65,87255
-0.1269,1.4341,8.0433,0.2248,0.3493,9.7978,0.0586,0.1185,-0.0073,16.4,-5.2,-41.5,258.34,-2.08,-1.5,87357
-0.5076,0.3388,11.6215,0.2174,0.4305,9.7948,0.0745,-0.1136,0.0086,16.8,-4.4,-41.2,262.95,-2.52,-1.27,87461
0.3268,0.4489,9.0525,0.3535,0.6719,9.7772,-0.1796,-0.2627,0.2993,16.8,-4.7,-41.2,261.64,-3.26,-1.84,87562
0.4345,1.1516,7.5932,0.3622,0.6381,9.7792,0.259,0.1735,0.3812,16.5,-5.5,-41.3,262.72,-3.73,-2.12,87664
-1.142,0.2143,9.0513,0.3012,0.4073,9.7936,-0.4606,0.171,-0.2285,16,-6.3,-41.8,257.43,-2.89,-2.11,87765
-0.893,0.996,7.9751,0.2839,0.3949,9.7946,0.2089,0.0367,0.0391,16.2,-6.5,-42.1,255.9,-2.31,-1.66,87868
-0.4896,0.8859,9.5672,0.255,0.5177,9.7897,0.0073,-0.3274,-0.2651,16.3,-6.6,-41.8,254.32,-3.03,-1.49,87969
0.3244,0.4405,9.2871,0.2472,0.8304,9.7683,0.5339,0.3299,0.1222,16.5,-6.6,-41.6,259.17,-4.86,-1.45,88071
-1.0953,-1.2917,12.4295,0.0726,0.678,9.7829,-0.0929,0.3665,-0.0892,16.6,-7.1,-41.6,257.91,-4.35,-1.17,88174
-0.1353,0.6273,9.6007,0.0238,0.6568,9.7846,-0.3213,-0.0208,-0.0269,17,-7.5,-41.3,256.07,-3.84,-0.14,88276
0.2454,1.2019,8.2337,0.0542,0.3968,9.7985,-0.1808,-0.0257,-0.0257,17.4,-7.5,-41.2,253.78,-2.82,-0.14,88377
0.1951,1.3431,9.2416,0.0456,0.3044,9.8018,0.0452,-0.0672,0.0134,17.5,-6.7,-40.8,252.53,-1.78,-0.27,88479
-0.5722,0.8487,10.1526,0.1111,0.4578,9.7953,0.3702,-0.4386,0.1979,17.5,-6.2,-41,256.27,-2.17,-0.26,88581
0.2119,0.6548,7.671,0.3476,0.9057,9.7585,-0.4618,-0.4545,0.1576,16.8,-6.2,-40.8,262.13,-4.89,-1.88,88684
-1.7657,-0.3208,10.568,0.4366,0.5394,9.7821,-0.1295,0.1784,0.2321,16.3,-6.9,-41.2,255.72,-3.42,-2.87,88786
-1.2031,-0.0958,10.3753,0.6523,0.202,9.7828,-0.6206,-0.0159,-0.1784,15.3,-7.7,-41.6,250.12,-2.2,-3.83,88887
-0.8308,0.8392,8.9854,0.6463,0.2241,9.7828,0.1234,0.1649,-0.0122,14.7,-7.2,-41.9,251.13,-1.31,-3.78,88990
-0.2179,1.1133,9.5122,0.5894,0.4146,9.7801,0.1637,-0.0208,-0.0672,14.5,-7.1,-42.2,252.71,-2.14,-3.52,89092
0.1185,0.4417,11.1522,0.6832,0.6616,9.7604,0.2871,-0.0623,-0.1051,14.3,-7.1,-42.1,254.73,-3.33,-3.99,89196
-0.261,-0.4836,12.1183,0.6716,0.5621,9.7675,-0.6145,0.5327,-0.5046,14.4,-7.8,-42.4,251.49,-3.29,-3.93,89296
0.4884,0.9493,7.5238,0.3416,0.4138,9.792,0.0929,0.1442,-0.033,14.6,-7.6,-42.1,249.34,-2.48,-1.98,89397
0.0132,0.5818,8.576,0.177,0.1512,9.8039,-0.2236,0.65,-0.3213,15.2,-6.7,-41.9,248.03,-0.88,-1.03,89499
-0.6357,0.7781,9.4296,-0.0495,-0.0018,9.8065,-0.1368,-0.369,-0.0831,16.5,-4.9,-41.3,253.4,0.01,0.29,89601
-0.559,0.4322,10.3286,0.1233,0.0053,9.8059,0.2114,-0.0379,0.1723,17,-3.9,-41.2,257.2,-0.03,-0.72,89704
0.7159,-0.3867,10.5309,0.4959,0.6929,9.7696,0.7343,-0.0965,0.5046,16.7,-4.4,-41.9,266.74,-4.05,-2.91,89808
-0.1987,0.0503,9.7181,0.5699,0.3411,9.7841,0.0721,0.2224,0.4423,15.9,-5.2,-42,259.4,-2.11,-3.67,89908
-0.8248,-0.3496,9.566,0.6174,0.0851,9.7868,-0.033,-0.1136,-0.011,15,-6.4,-42.4,252.23,-0.5,-3.61,90009
-0.6297,0.7003,9.092,0.5994,0.0799,9.788,0.033,0.0538,0.1002,14.6,-6,-42.6,252.18,-0.47,-3.5,90112
0.2849,0.7733,10.088,0.7119,0.3401,9.7749,0.0916,-0.1698,0.022,14.6,-5.8,-42.5,255.73,-1.99,-4.17,90215
1.0319,0.656,10.3597,0.6541,0.5737,9.768,0.0782,0.1393,-0.1283,14.4,-6.2,-42.4,257.91,-3.35,-3.83,90316
-0.5148,-0.4513,10.5213,0.4946,0.3603,9.7875,-0.3922,0.1112,-0.4875,14.5,-6.7,-42.2,252.23,-2.11,-2.89,90418
0.9337,0.4609,9.5074,0.434,0.2635,9.7935,-0.3629,-0.0709,-0.0867,14.7,-6.7,-42.2,251.9,-2.11,-2.39,90519
0.4286,0.808,8.2025,0.421,0.2149,9.7953,-0.0183,0.0122,0.0476,15.1,-6.2,-41.9,253.13,-1.26,-2.46,90621
0.1305,1.0283,8.6179,0.3783,0.3164,9.7942,0.0183,0.1124,-0.0086,15.5,-5.4,-41.7,258.22,-1.79,-2.46,90723
-0.0239,0.5219,11.4826,0.4624,0.3513,9.7894,0.0501,-0.2272,0.1698,15.6,-5.3,-41.7,258.16,-1.8,-2.25,90826
-0.0898,0.0934,11.3066,0.5828,0.5338,9.7747,-0.2321,-0.1063,0.1833,15.4,-6,-42,257.86,-3.12,-3.41,90927
0.8643,0.6764,9.4763,0.729,0.4949,9.767,-0.1405,0,0.0367,15,-6.9,-42.1,254.74,-2.89,-4.27,91030
-0.2466,0.3747,9.4092,0.652,0.4203,9.7759,-0.022,0.077,-0.077,14.5,-7.4,-42.2,253.06,-2.16,-4.03,91133
-0.1173,1.4269,8.1092,0.4566,0.5583,9.7801,0.1381,0.2615,0.0354,14.3,-7.7,-42.4,250.53,-3.26,-2.67,91233
-0.2885,0.6009,10.6051,0.5893,0.7145,9.7628,0.1552,-0.2541,-0.0257,14.6,-7.9,-42.2,253.35,-3.98,-2.93,91336
1.6029,0.2442,10.392,0.7189,1.0944,9.7188,0.5571,-0.1173,0.0733,14.6,-8.7,-41.7,256.33,-6.41,-4.23,91438
-0.3962,-0.0084,10.0006,0.6302,1.0774,9.7269,0.2468,0.3653,-0.022,14.5,-9.2,-41.6,255.36,-5.94,-4.34,91540
-0.103,0.7482,9.6391,0.6413,0.9584,9.7386,-0.2162,0.0684,-0.0843,14.4,-9.8,-41.6,250.43,-5.61,-3.77,91641
-0.0431,1.5119,8.4982,0.5603,0.8356,9.7549,0.0965,0.0648,0.0538,14.6,-9.2,-41.9,252.54,-4.89,-3.29,91743
-0.0204,1.5323,9.6187,0.4782,0.8681,9.7564,-0.0195,0.1332,0.0696,14.9,-9.1,-41.9,252.67,-5.08,-2.81,91846
-0.0443,1.5,8.764,0.4871,1.106,9.7319,0.4068,0.1393,0.3299,15,-9.1,-41.6,255.88,-6.48,-2.87,91947
-1.0367,-0.6776,13.0903,0.7447,0.75,9.7495,-0.6023,-0.5009,0.044,14.9,-9.5,-41.3,253.89,-5.52,-3.84,92050
0.5387,1.1432,8.0182,0.7079,0.517,9.7674,-0.3567,0.1613,0.2407,14.4,-9.4,-41.5,247.87,-3.02,-4.15,92152
-0.1676,1.1037,9.9754,0.5419,0.1599,9.7904,-0.0159,-0.1356,0.1588,14.3,-8.5,-42.1,245.79,-0.93,-3.17,92254
0.0215,1.3898,9.5972,0.4383,0.4955,9.7843,0.3433,0.0635,-0.0635,14.4,-7.7,-42.2,249.6,-2.9,-2.57,92355
-0.7781,0.2514,11.9219,0.4304,0.8591,9.7595,0.336,-0.0611,-0.3176,14.6,-7.6,-41.8,254,-4.38,-2.5,92458
0.9852,0.3615,11.9028,0.3949,1.06,9.7412,-0.1344,-0.0061,-0.3592,14.8,-8.7,-41.4,254.6,-6.21,-2.32,92559
0.3184,0.6081,7.3298,0.1947,1.0168,9.7518,-0.3128,-0.2199,-0.2737,15.2,-9.2,-41.2,253.34,-5.95,-1.14,92661
0.0012,1.2342,7.6567,0.2487,0.6704,9.7805,-0.1332,0.0098,0.0831,15.7,-8.9,-41.2,250.59,-4.17,-1.55,92764
-0.0575,1.6436,7.9164,0.2916,0.6429,9.7812,0.0745,-0.0843,0.0037,15.9,-7.9,-41.3,252.8,-3.76,-1.71,92865
-0.5758,0.7661,10.5309,0.2732,0.6328,9.7824,-0.0367,0.0391,-0.0208,15.9,-7.3,-41.4,255.7,-3.7,-1.6,92968
0.2693,0.9254,9.8234,0.2918,0.7466,9.7738,-0.3738,-0.3641,0.0745,16,-7.2,-41.3,257.09,-4.33,-1.54,93070
0.1305,1.3743,7.8362,0.3073,0.5361,9.7872,0.0476,0.281,0.2358,15.8,-7.2,-41.5,254.55,-3.13,-1.8,93171
-0.99,0.2861,9.2285,0.3175,0.4516,9.7911,-0.3946,0.0024,-0.1295,15.9,-7.4,-41.7,253.67,-2.64,-1.86,93277
-0.8966,0.6452,8.9088,0.2433,0.3463,9.7975,0.248,0.0684,0.0831,15.7,-7.1,-42,251.39,-1.69,-1.56,93375
-0.5112,1.1265,8.8394,0.1967,0.5326,9.7902,0.16,0.0367,0.011,15.7,-7.2,-41.8,253.85,-2.91,-1.14,93478
0.1113,0.0419,11.0038,0.3395,0.6644,9.7782,0.1051,-0.0538,-0.2016,15.6,-7.3,-41.5,256.3,-3.88,-1.99,93580
-1.5383,-1.2917,12.208,0.1014,0.3354,9.8004,-0.2443,0.3421,-0.088,15.7,-7.3,-41.4,253.55,-2.86,-1.12,93682
1.0558,0.9529,9.8306,0.0373,0.0629,9.8064,-0.1735,-0.0953,0.2871,16.2,-6.6,-41,248.68,-1.11,0.14,93784
0.3496,1.561,7.8362,-0.023,-0.0739,9.8063,0.088,0.0391,0.2969,16.8,-5.2,-40.6,252.56,0.43,0.13,93885
-0.1772,1.0523,8.3594,-0.0207,-0.0345,9.8066,-0.066,0.0061,-0.022,16.9,-4.8,-40.4,253.33,0.09,0.12,93988
-0.5387,0.1281,11.9997,0.0887,0.0213,9.8062,0.2834,-0.1319,0.4056,16.7,-4.6,-40.4,254.2,-0.12,-0.52,94090
0.5243,-0.5471,11.8321,0.2396,0.0881,9.8033,-0.1112,-0.2175,0.2908,16.6,-5,-40.6,256.1,-0.89,-0.88,94192
0.893,1.2198,7.1132,0.4609,0.2677,9.7922,0.3567,-0.2529,0.3971,16.1,-5.9,-41.3,253.79,-1.27,-2.19,94293
-0.6141,-0.0156,9.3051,0.4542,0.0444,9.796,0.0696,0.1442,0.0061,15.5,-6.5,-42,252.47,-0.34,-3.06,94396
-0.2789,0.6237,9.4367,0.44,0.1033,9.7962,0.3531,-0.0574,0.0623,15.1,-6.8,-42.3,248.74,-0.6,-2.57,94498
-0.571,-0.4764,12.5169,0.5165,0.6141,9.7738,0.3176,-0.2309,-0.2517,14.8,-7.4,-42.3,253.04,-2.52,-2.74,94618
1.1253,0.5986,9.1889,0.3921,0.8543,9.7615,-0.3763,0.2162,-0.4606,14.8,-8,-41.7,256.1,-5.27,-2.57,94701
-0.6237,0.1053,8.3234,0.0607,0.4728,9.7951,-0.4093,0.0159,-0.0244,15.3,-8.2,-41.3,248.47,-2.76,-0.36,94804
-0.5914,0.2286,9.6606,-0.0216,0.1454,9.8055,-0.0721,0.1588,-0.0305,15.8,-7.5,-41,249.42,-1.32,-0.19,94906
-0.7183,0.9074,8.758,-0.0139,0.1305,9.8058,0.0464,-0.022,-0.0476,16.6,-5.8,-40.6,252.16,-0.76,0.08,95009
-1.3252,0.4094,11.1857,-0.0376,0.2236,9.804,0.0354,-0.1796,-0.0367,16.9,-4.9,-40.4,256.37,-1.31,0.22,95109
-0.68,0.5507,9.3182,0.0918,0.5813,9.789,0.6854,-0.0367,0.3726,16.9,-5.1,-40.5,258.98,-2.33,-0.48,95212
-1.5131,-1.1803,13.313,0.2522,0.449,9.7931,0.0525,0.0391,0.2089,16.8,-5.8,-40.4,256.94,-2.62,-1.49,95313
-1.403,-0.395,9.9647,0.2504,0.203,9.8014,-0.2871,0.099,-0.0183,16.3,-6.7,-40.8,250.13,-1.19,-1.46,95415
-1.0391,0.8727,8.9842,0.1621,0.1496,9.8042,-0.0244,0.0757,0.1051,16.1,-6.7,-40.7,249.18,-0.86,-1.12,95517
-0.2717,0.4453,9.7205,0.2109,0.4171,9.7955,0.2285,-0.1026,0.0794,15.9,-6.6,-41,252.68,-2.44,-1.23,95619
0.152,0.8104,10.9523,0.2629,0.6496,9.7816,0.3824,-0.204,0.0709,15.9,-7,-40.8,255.89,-3.8,-1.54,95722
-0.8152,-0.5938,11.631,0.2705,0.4943,9.7904,-0.1295,0.463,-0.0745,15.7,-7.7,-40.9,250.85,-2.89,-1.58,95824
0.5076,0.6045,8.412,0.1013,0.4599,9.7953,-0.1796,-0.0098,0.0012,15.9,-7.6,-40.9,249.7,-2.69,-0.59,95925
-0.3998,0.6656,9.1494,0.0886,0.2423,9.8033,-0.0489,-0.248,-0.1197,16.1,-6.7,-41.3,249.91,-1.42,-0.52,96028
0.1975,1.2354,8.2732,0.1422,0.3324,9.8,0.0562,-0.0745,0.0354,16.5,-6.2,-41.4,254.94,-1.79,-0.77,96129
-0.4441,0.4681,9.8174,0.2754,0.4236,9.7936,0.1466,-0.2456,0.1869,16.5,-6,-41.2,256.08,-2.25,-1.06,96232
0.0862,-0.3041,12.7539,0.5499,0.4241,9.782,-0.4924,-0.1674,0.1356,15.8,-6.7,-41.2,256.06,-3.54,-3.05,96334
-0.1018,0.9349,8.7233,0.5265,0.3065,9.7877,-0.1491,-0.1429,0.2004,15.3,-7,-41.4,251.41,-1.81,-2.85,96436
-0.8631,-0.0431,9.7671,0.4717,0.1251,9.7945,-0.1564,0.1381,0.1197,14.7,-7.2,-41.7,249.66,-0.86,-3.06,96538
-0.3256,1.2522,8.0038,0.4209,0.2208,9.7951,0.2199,0.0965,0.0501,14.5,-7.1,-41.7,250.13,-1.29,-2.46,96640
-0.2011,1.1564,9.505,0.4389,0.4426,9.7868,0.077,-0.0269,-0.0782,14.4,-7.2,-41.7,250.03,-1.8,-2.31,96743
2.0279,-0.2682,10.7524,0.4723,0.6315,9.7749,-0.3384,0.1735,-0.474,14.7,-8,-41.2,252.09,-3.59,-2.68,96845
0.656,0.5878,7.8063,0.1792,0.385,9.7974,-0.1222,0.336,-0.0916,15,-8,-41.1,247.9,-2.25,-1.05,96945
-0.6153,-0.0862,10.5309,0.166,0.1246,9.8045,-0.1246,0.0892,-0.0941,15.3,-7.4,-41.1,248.21,-0.96,-1.13,97049
-0.3998,1.0319,8.3749,0.0923,0.141,9.8052,-0.0342,0.0782,-0.0635,15.8,-6.6,-40.9,248.63,-0.82,-0.54,97152
-0.6357,0.6883,9.6869,0.1437,0.1969,9.8036,-0.0171,-0.0623,-0.011,16.2,-5.7,-40.7,252.67,-1.15,-0.84,97251
-0.6608,0.5267,11.6825,0.2875,0.4182,9.7935,0.4398,0.0733,0.4447,16.1,-5.6,-40.5,254.47,-1.76,-1.74,97354
-0.808,-0.6656,11.5173,0.436,0.2957,9.7925,0.0183,-0.1979,0.3519,15.8,-6.3,-40.8,254.96,-1.73,-2.55,97456
0.3651,0.3591,8.7376,0.5801,0.2841,9.7854,-0.1197,-0.0599,0.0489,15.3,-6.9,-41.1,251.46,-1.66,-3.39,97560
-0.504,0.5243,7.9009,0.3399,0.0352,9.8007,-0.3225,0.3531,-0.16,15,-7.1,-41.4,247.56,-0.27,-2.09,97661
-0.51,0.7506,8.4072,0.3245,0.0173,9.8013,-0.0867,0.0709,-0.0134,15,-7.1,-41.4,247.17,-0.15,-1.94,97764
-0.3496,0.3699,11.1199,0.2121,0.1768,9.8028,0.1393,0.0244,-0.1674,15.2,-6.5,-41.2,251.66,-1.03,-1.24,97864
-0.5004,-1.0858,13.3154,0.2205,0.3681,9.7973,-0.1503,-0.2175,-0.2676,15.8,-6.7,-41.3,252.08,-2.15,-1.29,97965
0.6297,0.2406,7.8087,0.2078,0.1246,9.8037,0.0342,-0.2822,0.0098,16.1,-6.2,-41.5,251.58,-0.69,-0.76,98068
-0.1448,0.6512,7.9559,-0.0077,-0.1596,9.8053,-0.121,0.1393,0.0049,16.2,-5.3,-41.4,250.46,0.93,0.04,98169
-0.5531,0.5315,8.3845,0.1083,-0.1022,9.8055,0.1539,-0.226,0.0257,16.3,-4.4,-41,254.39,0.78,-0.42,98272
-0.1125,0.7254,9.5253,0.0789,-0.0581,9.8062,0.0831,0.0782,0.1075,16.4,-4.2,-40.7,255.44,0.34,-0.46,98373
0.0036,0.2885,10.0568,0.2929,0.1426,9.8012,0.0867,-0.0794,0.2285,16.2,-4.4,-40.5,258.73,-0.83,-1.71,98479
-1.5479,-1.2055,10.3525,0.4106,0.0572,9.7979,-0.1857,-0.0977,-0.0611,15.8,-5,-40.9,254.78,-0.26,-2.4,98578
-0.5088,-0.2562,8.9711,0.4576,-0.0351,9.7959,-0.2883,0.0611,-0.1173,15.2,-5.4,-41.5,254.48,-0.41,-2.78,98680
0.0048,0.5686,8.5485,0.479,-0.0072,9.7949,0.0428,0.1527,-0.0293,14.9,-5.6,-41.9,250.5,0.04,-2.8,98781
0.1006,0.5219,9.8509,0.4378,0.1195,9.7961,0.1038,-0.1002,-0.099,14.8,-5.8,-42.2,251.37,-0.48,-2.44,98883
-0.5052,0.1018,11.9303,0.5469,0.353,9.785,0.3824,-0.1234,-0.0134,14.9,-6.1,-42.1,253.74,-1.38,-2.99,98986
0.012,-0.097,10.1203,0.4473,0.2888,9.7922,-0.43,0.2798,-0.3323,14.8,-6.8,-42.3,253.44,-2.56,-3.24,99088
-0.0431,-0.2286,10.7009,0.5101,0.0564,9.7932,-0.3592,0.0611,-0.0929,14.7,-6.5,-42.2,251.44,-0.33,-2.98,99190
0.2813,0.9529,7.8123,0.3237,-0.0565,9.8011,-0.0342,0.3299,0.1271,14.9,-5.9,-42.3,249.15,0.33,-1.89,99291
0.4812,0.8583,9.9036,0.324,0.0881,9.8009,0.2175,-0.1662,0.171,15.3,-5,-42.1,253.13,-0.11,-1.7,99393
0.3065,0.1425,11.4994,0.3995,0.4369,9.7888,0.6646,-0.2505,0.0342,15.5,-5.2,-41.9,257.46,-1.55,-1.96,99497
-0.5531,-0.401,11.6717,0.5068,0.7636,9.7637,0.1772,-0.1136,0.0171,15.5,-6.8,-41.5,257.98,-4.47,-2.97,99598
0.0084,0.8547,8.1846,0.5986,0.7045,9.763,0.1869,-0.1405,0.1173,15.3,-7.7,-41.6,253.53,-3.98,-3.23,99699
-0.1484,1.0391,8.2983,0.5339,0.4283,9.7827,-0.1845,-0.0183,0.2309,15,-8.6,-41.8,248.25,-2.89,-3.23,99802
-0.4202,1.0618,8.9423,0.6572,0.4432,9.7746,-0.0403,0.066,0.0367,14.5,-8.1,-42.1,250.94,-2.59,-3.85,99903
-0.085,1.0546,10.8924,0.3062,0.5401,9.787,0.1271,0.1491,-0.1014,14.6,-7.9,-42.1,250.73,-3.16,-1.79,100006
1.4641,0.814,11.3042,0.4742,0.6713,9.7722,-0.0586,-0.1148,-0.6011,14.6,-7.8,-41.9,252.69,-3.8,-2.5,100108
-0.6381,-0.3448,8.7209,0.288,0.5218,9.7885,0.4313,-0.0562,0.0525,15.3,-7.4,-41.5,253.39,-3.05,-1.69,100210
-0.0407,0.2334,8.8777,0.5425,0.5711,9.775,-0.3335,-0.5168,-0.3067,15.5,-6.5,-41,258.67,-3.34,-3.18,100311
-0.5231,0.7494,8.5114,0.1927,0.4319,9.7952,0.0098,0.3152,-0.0501,15.7,-5.6,-41,256.02,-2.42,-1.69,100413
-1.4078,0.1173,10.2987,-0.118,0.3603,9.7993,-0.1649,0.2871,0.1344,16.3,-4.9,-40.8,257.34,-2.11,0.69,100515
-0.595,1.0295,10.4004,-0.352,0.3892,9.7926,0.1784,0.2749,0.3836,17,-4.6,-40.5,256.73,-1.83,1.86,100618
-1.1648,-0.0455,9.9994,0.0631,0.2596,9.803,-0.3348,0.5131,0.1967,17.7,-4.8,-40.1,257.81,-1.52,-0.37,100720
-0.8116,0.4022,8.3989,0.1009,0.2768,9.8022,-0.1356,0.1051,0.0428,17.7,-5,-40.4,257.42,-1.4,-0.03,100822
-1.093,0.7745,8.7915,0.0585,0.1698,9.805,0.193,0.0513,0.2334,17.3,-5.2,-40.8,255.75,-0.9,-0.22,100924
-0.2095,1.1001,9.4463,0.1397,0.3494,9.7994,0.16,-0.1319,0.1173,16.9,-5.5,-40.9,258.6,-2.04,-0.82,101026
-1.0642,0.0012,12.3553,0.213,0.5346,9.7898,0.3958,0.1295,-0.0379,16.8,-5.9,-40.8,256.74,-2.46,-1.47,101129
-0.1736,-0.3771,10.6913,0.123,0.5786,9.7888,-0.2969,0.325,-0.2615,16.6,-6.7,-41,255.34,-3.38,-0.72,101231
-0.2825,-0.0204,8.6084,0.2655,0.4191,9.7941,-0.0794,-0.4655,-0.1625,16.6,-6.8,-41.1,253.78,-2.69,-0.66,101331
0.1856,0.5914,8.7053,0.4543,0.2233,9.7936,-0.2676,-0.0574,-0.1319,16.3,-6.1,-41.2,254.13,-1.3,-2.66,101433
0.1006,0.8356,8.5437,0.4211,0.1202,9.7969,-0.0648,0.022,-0.088,16.1,-5.3,-41.3,255.87,-0.73,-2.6,101536
-0.1472,0.4226,10.7308,0.4005,0.121,9.7977,0.0916,-0.0073,0.0586,15.7,-4.6,-41.7,255.77,-0.71,-2.34,101645
0.3663,0.4645,9.1854,0.7193,0.502,9.7673,0.3067,-0.3054,0.2211,15.3,-4.5,-41.6,263.97,-2.93,-4.21,101739
-0.8978,-0.832,10.5225,0.8513,0.3027,9.7649,0.1674,-0.2407,0.4056,15,-5,-42,258.36,-1.69,-4.8,101841
-0.0455,0.4393,9.2416,0.9833,0.2125,9.7549,-0.2089,-0.1161,0.0147,14,-5.8,-42.4,254.23,-1.24,-5.76,101945
-0.0706,0.7386,9.1004,0.9058,0.0881,9.7643,-0.1454,0.0476,-0.1393,13.6,-5.8,-42.7,253.04,-0.62,-5.71,102046
-0.2179,0.7362,10.1789,0.789,0.1773,9.7733,0.0171,0.0855,-0.0696,13.4,-5.4,-43,255.35,-0.91,-4.86,102147
0.0359,0.4621,9.7779,0.7194,0.4623,9.7693,0.0403,0.1197,-0.1845,13.8,-5.1,-43,259.99,-2.7,-4.21,102250
-0.6871,-1.5191,14.0683,0.6274,0.2055,9.7844,-0.5864,0.1185,-0.2871,14.2,-5.1,-43,256.16,-1.2,-3.67,102351
0.1951,-0.4501,11.1929,0.4533,0.0469,9.7961,-0.5534,-0.1319,-0.1234,14.8,-4.9,-43.2,254.21,-0.27,-2.65,102454
0.0395,0.9122,7.3909,0.3126,-0.0285,9.8016,-0.0305,-0.0513,0.0501,15.3,-4.5,-43.4,256.04,0.13,-1.98,102556
0.2538,0.595,10.0521,0.3722,6.00E-04,9.7996,0.0635,-0.066,0.0709,15.7,-4,-43.3,257.22,0,-2.18,102657
0.1676,0.2837,10.8218,0.3315,0.1604,9.7997,0.3225,-0.0391,0.1845,15.9,-3.8,-43.5,257.85,-0.36,-1.79,102759
0.097,-0.8511,12.6007,0.5169,0.2503,9.7898,-0.3971,-0.2847,-0.1161,16,-4.5,-43.8,261,-1.46,-3.02,102861
-0.0419,0.3292,8.4336,0.7785,0.2907,9.7714,-0.0489,-0.0819,-0.1772,15.6,-5,-43.8,259.13,-1.7,-4.56,102964
-0.6057,0.34,7.9176,0.689,0.2081,9.7802,-0.0648,0.1307,-0.2443,15.2,-5.2,-44,257.55,-1.33,-4.13,103066
0.5746,1.3803,8.5413,0.6211,0.3115,9.782,0.2162,-0.0855,-0.0024,14.8,-5.1,-44.1,258.44,-1.82,-3.63,103167
-0.3029,0.5351,10.1957,0.497,0.4457,9.7839,0.0501,0.1491,-0.2615,14.9,-5.2,-44.2,259.81,-2.47,-3.27,103270
0.0718,-1.069,11.989,0.4633,0.2921,9.7913,-0.3763,-0.0379,-0.2443,15.2,-5.1,-44.1,257.73,-1.71,-2.71,103371
0.6273,0.7733,8.5006,0.3337,0.2529,9.7977,0.281,-0.0586,0.259,15.7,-4.7,-44.1,256.57,-1.12,-1.81,103473
-0.2849,-0.0156,9.9252,0.4253,-0.0521,9.7973,-0.0904,0.1161,-0.0819,16.1,-4,-43.7,256.7,0.3,-2.49,103575
-0.1808,0.917,7.9356,0.356,-0.0201,9.8002,0.0379,0.022,0.0024,16.2,-3.3,-43.4,259.8,0.21,-2.05,103677
-0.1113,0.4286,10.1981,0.42,0.0797,9.7973,-0.0562,-0.0134,-0.0525,15.9,-3.1,-43.5,261.72,-0.55,-2.46,103780
-0.0132,0.5507,11.8166,0.5028,0.2905,9.7894,0.4911,0.0037,0.3335,15.8,-3.1,-43.8,262.66,-0.89,-2.75,103881
-1.7669,-1.6652,12.9131,0.732,0.1784,9.7777,0.1075,0.2101,0.3286,15.4,-4,-43.9,260.97,-1.44,-4.48,103984
-0.1616,0.4334,9.2237,0.845,0.1626,9.7688,-0.1503,-0.2566,0.1246,14.7,-4.7,-44.3,257.09,-0.95,-4.94,104085
0.1736,0.9493,9.2775,0.8265,-0.0144,9.7717,-0.0086,-0.0464,0.1002,14.2,-4.8,-44.5,254,0.08,-4.83,104187
-0.316,0.7805,9.5349,0.6478,0.147,9.7841,0.0648,0.2505,-0.0953,13.9,-4.7,-44.8,255.63,-0.86,-3.79,104289
0.0922,-0.146,11.7771,0.5219,0.2975,9.7882,0.1918,0.0195,-0.0843,14,-4.7,-44.3,256.24,-1.32,-3.07,104391
0.0263,-0.5064,11.4838,0.4675,0.3217,9.7902,-0.325,0.0904,-0.2456,14.5,-5.3,-43.6,259.97,-2.58,-2.96,104494
0.006,0.1305,9.0321,0.3446,0.1899,9.7988,-0.0672,0.0892,0.0012,14.8,-5.2,-42.9,255.89,-1.1,-2.2,104596
0.3172,0.5938,7.4376,0.302,0.0766,9.8017,-0.1185,0.0367,0.0757,15.3,-4.7,-42.2,253.98,-0.45,-1.76,104697
0.1065,0.2382,8.5078,0.2006,0.0103,9.8046,-0.0867,0.1478,-0.1222,15.6,-4.1,-42.1,257.28,-0.21,-1.46,104800
-0.3687,0.0958,9.924,0.094,-0.0552,9.806,0.0159,-0.0122,0.1527,16,-3.6,-41.9,255.52,0.32,-0.55,104901
-0.9242,0.0622,10.5884,0.1637,-0.0323,9.8052,0.1026,-0.1173,0.215,16.2,-3.5,-41.9,258.77,0.39,-0.74,105003
-0.0515,0.237,9.7121,0.3704,-0.1913,9.7978,0.16,-0.0709,0.1979,16.1,-3.3,-41.7,256.9,1.45,-1.92,105106
-0.4393,0.0108,7.6914,0.4965,-0.0471,9.794,0.0195,0.1283,-0.2028,15.6,-3.5,-42.1,259.98,0.28,-2.9,105207
-0.7374,0.158,8.5976,0.3945,-0.0663,9.7985,0.2138,-0.0037,0,15.2,-3.5,-42.4,258.46,0.57,-2.36,105310
-0.4286,0.158,9.7241,0.4083,0.0982,9.7977,0.1796,-0.0183,0.0391,15.1,-3.8,-42.5,257.91,-0.57,-2.39,105412
-0.7865,-0.1113,11.2863,0.3186,0.2591,9.798,0.1979,0.1491,0.0782,15.1,-3.9,-42.4,259.25,-1.19,-2.11,105514
-0.413,-0.5148,12.566,0.0719,0.0422,9.8063,0.0464,0.2847,0.0354,15.6,-4.3,-42.1,256.82,-0.25,-0.42,105616
0.1628,0.0742,8.5054,-0.0721,0.1152,9.8057,-0.0024,0.0171,0.077,16.2,-4.3,-41.7,257.97,-0.9,0.44,105717
-0.5698,0.3783,7.6148,-0.1062,0.0504,9.8059,-0.1393,-0.0269,0.0929,17.1,-4.3,-41.2,257.11,-0.29,0.62,105820
-0.0539,0.9732,8.4252,0.0517,-0.0414,9.8064,-0.0867,-0.1307,0.171,17.3,-4.2,-41.2,256.53,0.12,-0.08,105922
-0.0551,-0.0443,13.2866,0.2731,0.0382,9.8028,0.1161,-0.2859,0.292,16.8,-4.5,-41.6,258.07,-0.22,-1.6,106024
-0.9732,-1.3994,13.2687,0.4541,0.1593,9.7948,-0.2297,-0.3409,0.1454,16,-5.5,-42,256.42,-0.93,-2.65,106126
0.3388,0.8236,7.8398,0.5445,0.1422,9.7905,-0.0476,-0.1381,0.0965,15.4,-6.1,-42.3,252.36,-0.78,-2.91,106229
-0.1437,0.4872,8.1475,0.5477,-0.0412,9.7913,-0.1051,-0.0061,-0.0684,14.8,-6.6,-42.5,247.51,0.24,-3.2,106330
-0.1784,0.8464,8.108,0.4604,-0.0471,9.7957,0.1075,0.1319,-0.011,14.5,-6.3,-42.5,249.79,0.44,-2.96,106431
-0.7805,-0.2921,12.1841,0.419,-0.009,9.7977,0.0049,-0.0635,-0.1503,14.8,-5.8,-42.4,250.21,0.05,-2.45,106534
0.5614,-0.2394,10.1778,0.2281,0.0197,9.804,-0.4105,0.2773,-0.3629,15,-5.5,-42.3,254.24,-0.56,-1.76,106635
0.1197,-0.2119,8.6598,-0.0628,-0.3018,9.8018,-0.3482,0.3567,-0.2199,15.8,-4.8,-41.9,248.2,1.76,0.37,106737
0.267,-0.1592,10.1311,-0.0107,-0.364,9.7999,-0.16,-0.1197,-0.0061,16.3,-4.2,-41.8,251.42,1.75,0.39,106839
-0.7709,0.4908,8.1774,-0.04,-0.3391,9.8007,0.1063,-0.0941,-0.033,17.1,-3.3,-41.3,254.95,2.08,0.41,106941
-0.4477,0.3077,8.2971,0.0506,-0.2514,9.8033,-0.044,-0.0538,0.1197,17,-3.1,-41.3,256.91,1.47,-0.3,107043
-0.4908,-0.6357,12.8628,0.1334,-0.2634,9.8022,0.1283,-0.1979,0.2822,16.8,-3.1,-41.4,256.87,1.54,-0.78,107146
-0.7709,-2.2901,16.3704,0.5821,-0.407,9.7809,-0.5327,-0.4447,-0.1161,16.2,-3.6,-42,254.14,1.52,-2.67,107248
0.4357,0.6452,7.4711,0.6269,-0.2089,9.7844,-0.1759,0.1552,-0.0733,15.4,-3.8,-42.7,254.56,1.22,-3.67,107356
-0.4357,0.2047,8.6598,0.485,-0.3344,9.7889,-0.0403,0.0831,-0.1258,15,-4,-43,252.61,1.9,-2.99,107456
-0.17,0.7266,8.6036,0.4095,-0.1763,9.7965,0.1637,0.0354,-0.1124,14.8,-4,-43.1,254.16,1.03,-2.39,107554
-0.6788,-0.2263,12.0524,0.4261,-0.0918,9.797,0.1527,-0.0513,-0.1918,15,-4.1,-42.8,255.38,0.54,-2.49,107655
-0.5519,-1.8579,13.696,0.4693,-0.1954,9.7935,-0.0904,-0.044,-0.2077,15.2,-3.9,-42.3,256.43,0.13,-2.7,107758
0.073,-0.4262,7.586,0.2248,-0.1375,9.8031,0.5424,0.0611,0.2651,15.5,-3.6,-42.3,253.02,1.66,-1.44,107860
0.7566,0.4106,7.4268,0.2933,-0.223,9.7997,-0.2663,0.1319,-0.1478,16,-3.1,-42.5,257.12,1.3,-1.71,107961
0.0778,0.4884,8.0313,0.3596,-0.4258,9.7908,0.0159,0.0269,-0.0794,16.3,-2.4,-42.8,257.67,2.49,-2.1,108063
-0.2945,-0.0431,10.5596,0.4248,-0.4615,9.7866,-0.1087,-0.1002,-0.1136,16.2,-1.9,-43.2,257.22,2.71,-2.19,108165
0.4645,-0.2634,12.536,0.5617,-0.2692,9.7868,0.2443,0,0.1222,16.1,-1.5,-43.1,262.31,2.03,-3.28,108268
-0.4429,-0.9816,10.4902,0.6761,-0.3834,9.7758,-0.2737,-0.1564,-0.0305,15.6,-1.5,-43.2,262.08,2.24,-3.96,108370
-0.1317,-0.4381,9.4463,0.8678,-0.4991,9.7554,-0.2162,-0.2138,0.011,15.2,-1.9,-43.4,257.64,2.92,-5.08,108471
-0.2322,0.1101,8.6634,0.8518,-0.568,9.7531,-0.0061,0.0941,-0.0623,14.8,-1.8,-43.6,256.71,3.32,-5.15,108573
0.0156,0.3855,9.1087,0.7575,-0.4186,9.7684,0.1393,0.0672,-0.1454,14.6,-1.6,-43.9,258.24,2.45,-4.43,108676
-0.012,-0.51,12.8712,0.8418,-0.2495,9.7673,0.2053,-0.1368,-0.2443,14.6,-1.5,-43.8,262.47,1.97,-4.82,108777
0.2658,-1.0942,11.9195,0.6356,-0.2909,9.7817,-0.2957,0.4728,-0.2834,14.9,-1.7,-43.7,260.79,1.34,-4.59,108881
-0.2382,-0.2274,7.7752,0.3646,-0.2513,9.7966,-0.0379,0.0501,-0.0208,15.4,-1.5,-43.5,262.82,1.49,-2.27,108984
-0.2011,0.4202,7.1646,0.2305,-0.3335,9.7983,-0.088,0.2786,-0.0012,16.3,-1.1,-42.5,261.91,1.95,-1.35,109083
0.0204,0.4788,7.7129,0.2132,-0.3499,9.7981,0.0684,-0.1075,0.0929,17.2,-0.6,-41.8,262.1,2.04,-1.25,109185
-0.2981,-1.0211,12.3469,0.3549,-0.4284,9.7909,0.1796,-0.1906,0.1527,17.3,-0.6,-41.6,261.38,2.5,-2.08,109288
-0.2909,-2.132,13.8481,0.5939,-0.4007,9.7804,-0.4496,-0.474,0.0098,17,-1,-42.2,262.21,2.34,-3.47,109389
0.1221,-0.0311,8.7376,0.679,-0.4438,9.773,0.2529,0.033,0.4826,16.4,-1.2,-42.5,260.61,2.98,-3.97,109492
-0.0419,-0.1867,8.4898,0.7939,-0.4915,9.7621,-0.1943,0.1246,-0.0757,15.6,-1.9,-43.3,258.14,2.87,-4.65,109593
-0.0994,0.5004,8.3199,0.6892,-0.4398,9.7725,0.1588,0.1393,-0.1686,15.2,-2.1,-43.8,257.27,2.85,-4.29,109695
-0.7661,-0.6237,11.0097,0.6745,-0.2967,9.7789,0.1234,-0.033,-0.1979,15.2,-2.2,-44,259.62,1.73,-3.95,109798
0.3579,-0.0431,10.7859,0.6719,-0.0573,9.7834,0.215,0.0464,-0.0721,15.3,-2.5,-43.8,262.87,0.33,-3.93,109899
-0.0443,-0.7877,11.552,0.3947,-0.251,9.7955,0.0342,0.3005,-0.1051,15.5,-2.6,-43.6,257.85,1.24,-2.95,110001
-0.0646,-0.431,9.3901,0.3521,-0.3349,9.7946,0.0257,0.11,0.0538,16.1,-2.4,-43,258.88,1.96,-2.06,110104
-0.4944,0.2179,8.6766,0.3305,-0.3772,9.7938,-0.0782,-0.0599,-0.0379,16.6,-1.6,-42.4,258.96,2.2,-1.93,110206
0.6668,0.6404,9.3841,0.5264,-0.2956,9.788,-0.0024,-0.182,0.0476,16.7,-1.4,-42.2,263.08,1.81,-2.69,110309
-0.1053,-0.0431,10.5967,0.6305,-0.2307,9.7836,0.2615,-0.0415,0.2468,16.2,-1.6,-42.4,260.99,1.35,-3.69,110410
-0.9457,-2.2254,15.8676,0.9667,-0.3945,9.7509,-0.5498,-0.6451,-0.044,15.7,-2.1,-42.7,260.8,1.64,-4.96,110511
-0.0036,0.0132,8.114,1.0378,-0.182,9.7499,0.0965,-0.1332,0.0574,14.8,-2.7,-43,259.06,1.06,-6.08,110614
-0.3723,0.0994,8.6036,0.8883,-0.2612,9.7628,0.1405,0.0794,-0.0623,14.3,-3,-43.3,257.04,1.53,-5.2,110715
0.0814,0.6536,7.6579,0.7349,-0.019,9.7791,0.2798,0.1588,0.0159,14.1,-3.2,-43.2,259.28,0.39,-4.53,110818
-0.5842,-0.2837,12.2811,0.7455,0.0591,9.7781,0.1405,-0.2334,-0.1393,14.4,-3.7,-42.9,257.73,-0.35,-4.36,110919
0.261,-1.5383,13.4494,0.7572,0.0618,9.7772,-0.8247,0.1515,-0.3164,14.7,-3.9,-42.4,258.38,-0.36,-4.43,111022
0.3543,0.3555,7.4651,0.4764,-0.1843,9.7933,0.2431,0.3201,0.1955,14.9,-3.5,-42,256.8,1.47,-3.14,111124
0.4848,0.3005,7.9942,0.525,-0.2403,9.7896,-0.0098,0.1747,-0.0733,15.2,-2.8,-42,257.29,1.33,-3.49,111225
-0.0299,0.6812,7.8877,0.4837,-0.1631,9.7934,0.1478,0.0037,-0.0232,15.4,-2.1,-42,260.44,1.21,-2.82,111327
-0.0587,-0.1317,11.1247,0.5434,-0.0806,9.7913,0.1649,-0.3482,0.3274,15.6,-2.3,-42.1,262.72,0.47,-3.18,111430
0.4573,0.4381,9.7073,0.8361,0.1274,9.7701,0.281,-0.1784,0.3567,15.4,-2.7,-42.1,262.4,-0.74,-4.89,111531
-1.0403,-1.3515,13.3596,1.0428,-0.2313,9.7483,-0.6243,-0.595,0.0024,14.9,-3.3,-42.1,260.14,0.55,-6.22,111634
-0.4513,-0.2502,8.8502,0.8708,-0.3044,9.7632,-0.1698,0.3873,-0.0012,14.1,-3.8,-42.6,253.42,1.78,-5.1,111736
-0.3771,0.3639,8.6036,0.6523,-0.3184,9.7797,0.0635,0.1417,0.0843,14.2,-3.6,-42.6,252.17,2,-4.01,111838
-0.5986,0.3998,11.0002,0.5149,-0.193,9.7912,0.0428,0.1906,-0.0098,14.8,-3.7,-42.6,254.35,1.13,-3.01,111939
-0.4693,0.0156,11.4359,0.3282,-0.0668,9.8009,0.4374,-0.1258,-0.0086,15.2,-3.8,-42.2,255.36,0.39,-1.92,112041
-0.5818,-0.9337,10.2173,0.5322,-0.0546,9.792,-0.088,0.4704,0.1283,16.1,-4.6,-41.4,253.99,0.32,-3.11,112144
-0.3424,-0.5686,9.0597,0.3717,-0.2747,9.7958,-0.3409,0.0342,0.0086,16.4,-4.6,-41.1,250.93,1.26,-1.46,112246
0.3053,0.2562,7.2305,0.7423,-0.3585,9.7719,-0.2395,-0.1051,0.1173,15.8,-4.3,-41.5,254.05,2.1,-4.34,112348
1.1109,1.3707,7.5214,0.6857,-0.4918,9.7703,-0.1955,-0.1991,-0.0806,15.4,-4,-42,251.96,2.7,-4.38,112450
0.7075,0.1748,12.2631,0.9721,-0.5042,9.7453,0.2382,-0.3897,0.099,14.4,-3.8,-42.8,251.4,2.95,-5.7,112552
2.2063,-0.8475,13.1801,1.5123,-0.1535,9.6881,-0.43,-0.7025,-0.2822,13.6,-4.2,-43.2,257.9,0.3,-7.72,112653
0.0802,0.5052,6.9384,1.4114,0.0357,9.7045,0.0367,-0.0208,-0.1124,12.1,-4.8,-44,255.09,-0.21,-8.28,112755
-0.0395,-0.1915,9.1842,1.3897,-0.169,9.7062,-0.369,-0.0183,-0.1222,11.4,-5.5,-44.1,252.71,0.57,-8.54,112857
0.5124,1.1073,7.0856,1.2817,-0.052,9.7224,0.3629,0.0428,0.1197,11.3,-5.3,-44.1,252.59,0.3,-7.51,112959
0.5243,-0.0599,12.8569,1.4559,0.1009,9.6975,0.182,-0.3018,-0.1503,11.5,-5.5,-44.1,255.21,-0.33,-8.03,113062
0.9661,-1.3647,12.6665,1.3527,0.2745,9.709,-0.65,0.2309,-0.3042,11.5,-5.8,-44,254.96,-1.6,-7.93,113165
1.2079,0.073,7.5848,1.0262,0.0394,9.7527,0.3054,0.5376,0.1381,11.4,-5.6,-43.7,249.45,-0.23,-6.01,113268
0.425,-0.1197,9.068,0.8271,-0.0258,9.7717,-0.0525,0.2724,-0.0831,11.9,-5.4,-43.4,251.85,0.15,-4.84,113368
-0.1688,0.6057,7.4735,0.6008,-0.1316,9.7873,-0.1319,0.1698,-0.1869,13,-4.7,-43,251.03,0.58,-3.74,113469
-0.0383,0.6548,9.3948,0.6418,-0.165,9.7842,0.0049,-0.066,-0.0061,13.9,-3.9,-42.8,254.14,1.05,-3.74,113573
0.9278,0.68,9.4116,0.9133,0.092,9.7636,0.6695,-0.2175,0.3702,13.8,-3.6,-42.7,258.62,-0.54,-5.34,113674
-0.6632,-1.1073,11.5173,1.1244,-0.139,9.741,0.2162,0.2944,0.3543,13,-3.7,-43,255.59,0.81,-6.58,113776
0.4369,0.5567,7.2568,1.0978,-0.0659,9.7448,0.0843,-0.1576,0.1552,12.6,-4.1,-42.9,257.07,0.06,-6.26,113878
0.1113,0.3771,9.1734,1.0884,-0.1922,9.7442,0.0391,-0.1063,-0.0721,12.1,-4.1,-43.1,253.93,1.12,-6.37,113980
0.1891,0.7266,8.4731,0.9962,-0.0372,9.7559,0.1283,0.0122,-0.1759,12.1,-3.8,-43.1,255.17,0.51,-6.09,114082
-0.0814,0.0215,11.2252,1.0552,0.189,9.7479,0.2004,-0.2016,-0.171,12,-3.8,-42.8,259.06,-1.1,-6.18,114184
-0.1616,-1.2629,12.2212,0.8924,0.0879,9.7656,-0.4691,0.121,-0.3115,12.3,-3.9,-42.3,257.02,-0.51,-5.22,114285
1.2713,0.3639,7.3909,0.7331,-0.0448,9.7791,-0.2688,-0.022,0.0232,12.7,-3.5,-42.1,258.81,0.26,-4.29,114388
0.3136,0.5327,8.0661,0.6567,-0.4088,9.7761,-0.3897,0.1515,-0.1246,13.2,-2.6,-41.9,253.39,2.39,-3.84,114490
0.0575,0.7482,8.509,0.5746,-0.482,9.7779,0.0159,0.0244,0.0159,13.6,-1,-41.7,259.59,2.82,-3.36,114592
-0.5255,-0.6045,12.5779,0.6812,-0.4534,9.7724,0.2627,-0.2004,0.1979,13.7,-0.3,-41.7,262.48,3.07,-3.66,114694
1.6448,-0.844,10.8469,0.7855,-0.111,9.7745,-0.2663,-0.4594,0.0635,13.8,-0.5,-41.8,268.48,0.65,-4.59,114795
-0.2382,-0.5219,9.3913,0.8681,-0.2302,9.7654,0.2065,0.3555,0.292,13.3,-0.9,-42.2,263.31,1.35,-5.08,114900
-0.2514,-0.0096,9.3111,0.8898,-0.2125,9.7639,-0.38,-0.0159,-0.0611,12.9,-1.9,-42.7,261.74,0.64,-5.42,115017
-0.5064,0.3795,8.6491,0.8464,-0.2097,9.7678,0.182,0.1466,-0.0281,12.7,-2,-42.9,259.8,1.38,-4.99,115103
-0.2634,0.1496,9.0477,0.7789,-0.0685,9.7754,0.0831,0.0183,-0.1417,12.9,-2.2,-42.9,261.99,0.39,-4.39,115204
1.1672,-0.4884,11.1414,0.9459,0.0495,9.7608,0.3213,-0.0684,-0.0953,13.1,-1.8,-42.7,264.02,-0.29,-5.54,115305
0.3711,-1.1851,11.3569,0.6917,-0.1811,9.7805,-0.281,0.3604,-0.1319,13.1,-1.6,-42.6,261.59,0.59,-4.65,115408
-0.1867,-0.2227,9.9802,0.5541,-0.4117,9.7823,-0.3922,0.0367,-0.0318,13.6,-0.7,-42.3,260.54,2.41,-3.24,115509
-0.2837,0.5806,8.0936,0.4768,-0.5643,9.7788,-0.0696,0.0806,0,14.1,0,-42,261.57,3.3,-2.79,115612
0.0156,0.0192,9.7947,0.5177,-0.4908,9.7807,0.0367,-0.099,-0.0134,14.7,1.1,-41.5,266.41,2.95,-2.89,115713
-0.0658,-0.589,11.2958,0.6768,-0.2323,9.7805,0.4362,-0.237,0.292,14.6,1.5,-41.8,271.17,2.29,-3.44,115816
