accX,accY,accZ,gX,gY,gZ,gyrX,gyrY,gyrZ,mX,mY,mZ,oZ,oX,oY,delta
-0.729,0.6261,9.9288,-0.6497,0.6178,9.7656,-0.0159,-0.0415,0.0171,5.1,16.3,-43.9,353.71,-3.61,3.81,37
-0.6165,0.656,9.6403,-0.6446,0.5969,9.7672,-0.0134,-0.0195,0.0379,5.1,16.4,-44.1,353.7,-3.5,3.81,139
-0.5662,0.6321,9.5648,-0.6069,0.5822,9.7705,-0.0024,-0.0257,0.0073,5.2,16.6,-43.6,353.41,-3.4,3.55,242
-0.565,0.5794,9.8007,-0.576,0.5599,9.7737,-0.0183,-0.0586,-0.0098,5.1,16.7,-43.7,353.2,-3.36,3.47,343
-0.6009,0.5483,9.8043,-0.5668,0.5559,9.7745,-0.0086,-0.0159,-0.0098,5,16.8,-43.5,352.72,-3.27,3.34,445
-0.6177,0.4944,9.839,-0.5589,0.5586,9.7748,0.0464,-0.0195,0.0098,4.8,16.8,-43.6,352.88,-3.21,3.34,547
-0.5602,0.6225,9.5756,-0.5599,0.5838,9.7732,-0.0208,-0.0024,-0.0257,4.7,16.9,-43.4,352.68,-3.44,3.3,649
-0.6883,0.5567,9.5433,-0.5694,0.5743,9.7732,0.0012,0.0122,-0.0208,4.7,16.9,-43.8,352.83,-3.38,3.3,752
-0.6117,0.5519,9.7671,-0.5677,0.5719,9.7735,0.0073,0.0024,-0.0183,4.7,16.9,-43.5,352.65,-3.34,3.31,853
-0.6776,0.6177,9.4511,-0.5739,0.5905,9.772,-0.0208,0.0012,-0.0452,4.7,16.7,-43.8,352.98,-3.47,3.35,955
-0.8009,0.4405,9.8067,-0.5737,0.5453,9.7747,-0.0684,-0.0147,-0.0428,4.6,16.7,-43.6,353.05,-3.29,3.41,1057
-0.5758,0.565,9.7624,-0.5522,0.5293,9.7768,0.0073,0.0147,0.0024,4.6,16.7,-43.9,352.55,-3.08,3.21,1159
-0.6536,0.5219,9.5648,-0.5472,0.5397,9.7765,-0.0513,-0.0147,-0.0171,4.5,16.9,-43.8,352.56,-3.15,3.2,1261
-0.5411,0.4621,9.8162,-0.5394,0.4889,9.7796,-0.0367,0.0037,-0.011,4.5,17,-44,352.45,-2.97,3.18,1363
-0.595,0.5962,9.7671,-0.563,0.4785,9.7788,-0.0379,0.0305,-0.0489,4.6,17,-43.7,352.57,-2.85,3.25,1466
-0.5842,0.4717,10.0078,-0.5681,0.4506,9.7798,-0.0024,0.0012,-0.0305,4.6,16.9,-43.6,352.66,-2.69,3.31,1567
-0.6584,0.5207,9.5984,-0.5731,0.4767,9.7783,0.0672,0.011,0.0049,4.5,17,-43.5,352.61,-2.79,3.35,1670
-0.6093,0.5902,9.3661,-0.5842,0.5336,9.7747,0.0391,0.0061,-0.0122,4.6,16.9,-43.6,352.96,-3.01,3.4,1771
-0.7865,0.4681,9.7815,-0.5822,0.5048,9.7763,-0.0623,0,-0.0098,4.4,17,-43.5,355.71,-3.06,3.4,1873
-0.5567,0.5567,9.8952,-0.5572,0.4875,9.7787,-0.0159,-0.0586,0.044,4.3,17,-43.5,355.46,-2.84,3.3,1975
-0.5471,0.6632,9.5026,-0.557,0.5125,9.7774,0.0037,-0.0086,0.0086,4.3,17,-43.3,355.44,-2.97,3.28,2077
-0.6572,0.4968,9.7779,-0.5296,0.5025,9.7794,-0.0415,-0.0208,-0.0159,4.4,17,-43.6,355.2,-2.94,3.1,2180
-0.5974,0.5614,9.7695,-0.5254,0.4713,9.7812,0.0012,-0.0122,0.0098,4.4,17,-43.4,354.97,-2.76,3.09,2281
-0.644,0.5842,9.7157,-0.5496,0.4908,9.7789,0.0281,0.0489,-0.0024,4.3,17,-43.5,355.18,-2.81,3.18,2383
-0.7446,0.504,9.6822,-0.5802,0.5215,9.7756,0.0098,0.0159,-0.0073,4.4,16.9,-43.4,355.61,-3.03,3.35,2486
-0.5375,0.6393,9.5912,-0.6099,0.5381,9.7729,-0.0012,0.0195,0.0318,4.4,16.8,-43.7,356.25,-3.11,3.55,2588
-0.68,0.589,9.7659,-0.6084,0.5463,9.7725,-0.0354,0.0257,-0.0134,4.4,16.7,-43.6,356.3,-3.19,3.56,2689
-0.6895,0.6069,9.6031,-0.6239,0.525,9.7727,-0.0086,0.0061,-0.0098,4.5,16.6,-43.7,353.51,-3.11,3.63,2791
-0.644,0.5638,9.7552,-0.6173,0.5077,9.774,-0.0293,0.0012,0.0037,4.4,16.8,-43.4,356.18,-2.97,3.61,2894
-0.6345,0.5339,9.493,-0.6201,0.4915,9.7747,-0.0269,-0.0086,-0.0147,4.4,16.8,-43.3,356.2,-2.9,3.62,2995
-0.7123,0.4226,9.6618,-0.6301,0.4248,9.7772,-0.0709,0.0208,-0.0183,4.5,16.9,-43.6,353.43,-2.78,3.63,3097
-0.5806,0.516,9.9443,-0.6264,0.3963,9.7786,-0.033,0.0024,0.0049,4.5,17,-43.9,353.42,-2.37,3.67,3199
-0.6955,0.5171,9.8545,-0.6485,0.3981,9.7771,0.0281,0.0171,-0.0159,4.6,17.2,-43.8,353.61,-2.29,3.77,3301
-0.7266,0.4657,9.7157,-0.6647,0.4172,9.7752,0.0208,0.0171,-0.0122,4.5,17.2,-43.4,353.66,-2.41,3.87,3404
-0.6428,0.5136,9.5469,-0.6741,0.4562,9.7728,0.0281,-0.0354,-0.0061,4.7,17.1,-43.2,353.98,-2.64,3.98,3505
-0.7841,0.5016,9.6893,-0.6813,0.4405,9.773,-0.0269,0.0061,-0.0232,4.7,16.9,-43.4,353.92,-2.64,3.96,3607
-0.7877,0.4417,9.8809,-0.6987,0.398,9.7736,-0.022,0.0183,-0.0159,4.7,16.9,-43.3,354.11,-2.41,4.06,3710
-0.8056,0.4752,9.7576,-0.7133,0.3851,9.7731,-0.0257,0.0086,0.0293,4.5,17,-43.4,354.33,-2.25,4.17,3812
-0.6979,0.5842,9.5241,-0.7094,0.3966,9.7729,0.0024,-0.0195,-0.011,4.6,17.1,-43.5,354.34,-2.28,4.18,3913
-0.8212,0.3938,9.8258,-0.708,0.3772,9.7738,-0.022,0.0195,-0.0257,4.6,17.3,-43.5,354.21,-2.23,4.13,4015
-0.8404,0.4082,9.9874,-0.7108,0.3722,9.7738,0.0037,-0.022,-0.0134,4.7,17.2,-43.4,354.35,-2.17,4.19,4118
-0.6859,0.5291,9.6043,-0.7049,0.4194,9.7723,0.0428,0.0024,0.0232,4.6,17.1,-43.2,354.26,-2.45,4.13,4219
-0.7386,0.4693,9.3577,-0.6941,0.4617,9.7712,0.0049,-0.055,-0.0232,4.5,17,-43.4,354.23,-2.64,4.09,4322
-0.7051,0.5219,9.584,-0.6793,0.4603,9.7723,0.0061,0.0049,0.0061,4.5,17,-43.4,353.97,-2.7,3.97,4424
-0.6452,0.571,9.4822,-0.6834,0.4425,9.7728,-0.0305,0.0159,0.0159,4.3,17,-43.3,356.97,-2.63,3.98,4525
-0.826,0.4848,9.7504,-0.6786,0.408,9.7746,-0.0049,-0.0281,0.033,4.3,17.1,-43.1,356.9,-2.39,3.97,4627
-0.5902,0.65,9.4894,-0.6692,0.4028,9.7755,0.0476,0.0183,0.0428,4.4,17.2,-43.4,356.78,-2.35,3.92,4729
-0.662,0.4633,9.4679,-0.6612,0.4385,9.7745,0.0171,-0.033,0.0012,4.4,17.1,-43.7,356.92,-2.56,3.87,4831
-0.6644,0.4513,9.6055,-0.645,0.4217,9.7763,-0.033,-0.0037,-0.0159,4.3,17.2,-43.6,356.72,-2.52,3.79,4934
-0.5435,0.6153,9.6235,-0.6279,0.4007,9.7783,-0.0012,-0.0501,-0.0122,4.3,17.1,-43.7,356.43,-2.34,3.67,5035
-0.6728,0.4872,9.8007,-0.6058,0.3868,9.7803,-0.0342,0.0232,-0.0159,4.3,17.1,-43.6,356.04,-2.32,3.51,5137
-0.7099,0.4393,9.7312,-0.6058,0.3914,9.7801,-0.0061,0.0024,-0.0012,4.4,17.1,-43.5,355.83,-2.31,3.5,5239
-0.7733,0.4274,9.6067,-0.6508,0.4006,9.7768,0.0415,0.0819,-0.0086,4.3,17.1,-43.5,356.22,-2.31,3.67,5342
-0.6177,0.5471,9.6558,-0.6735,0.4114,9.7748,-0.0122,-0.0159,0.044,4.4,17.1,-43.5,356.9,-2.43,3.96,5444
-0.7518,0.4441,9.6654,-0.6621,0.399,9.7761,-0.0171,-0.0098,0.022,4.4,17.2,-43.6,356.99,-2.37,3.91,5545
-0.5387,0.5363,9.5816,-0.6543,0.3931,9.7769,0.0061,-0.0061,0.0464,4.6,17,-43.5,353.55,-2.3,3.83,5648
-0.5698,0.5112,9.5852,-0.6344,0.3846,9.7785,-0.0195,-0.0134,0.0171,4.5,17,-43.5,353.36,-2.28,3.75,5749
-0.5794,0.4585,9.7252,-0.6194,0.3649,9.7803,-0.0257,-0.0171,0.0012,4.6,16.9,-43.5,353.11,-2.15,3.65,5851
-0.7063,0.3627,9.7181,-0.6184,0.3546,9.7807,0.011,-0.0244,-0.0024,4.5,16.9,-43.6,353.28,-2.07,3.65,5953
-0.6093,0.4537,9.6822,-0.6082,0.353,9.7814,-0.0195,0.0171,0.0024,4.5,17,-43.5,352.86,-2.06,3.56,6055
-0.7159,0.4286,9.5876,-0.6056,0.3477,9.7818,0.0024,-0.0122,-0.0293,4.5,17.1,-43.4,352.8,-2.07,3.53,6157
-0.662,0.4776,9.6247,-0.6081,0.3461,9.7817,0.0244,0.0086,0.0269,4.5,17.2,-43,352.76,-1.96,3.53,6260
-0.6524,0.4776,9.5229,-0.6151,0.359,9.7808,-0.0098,0.0049,0.0257,4.5,17.3,-43,352.84,-2.08,3.55,6361
-0.729,0.3998,9.681,-0.6213,0.3545,9.7805,-0.011,-0.0024,0.0122,4.3,17.4,-43.1,356.12,-2.07,3.64,6463
-0.5638,0.4369,9.5888,-0.6187,0.3467,9.781,-0.0134,-0.0073,0.011,4.3,17.4,-43,356.12,-2.07,3.64,6565
-0.662,0.4118,9.6774,-0.621,0.3283,9.7815,-0.0061,0.0073,0.0037,4.2,17.4,-43.2,356.09,-1.92,3.64,6667
-0.8344,0.3472,10.0126,-0.6179,0.3189,9.782,-0.0147,-0.0195,-0.0134,4.3,17.3,-43.1,356.01,-1.92,3.61,6769
-0.5734,0.5279,9.6151,-0.6244,0.3451,9.7807,0.0452,0.0232,0.0122,4.4,17.3,-43.7,356.26,-1.93,3.63,6871
-0.7027,0.4334,9.3889,-0.6288,0.3807,9.7791,0.0244,-0.0208,-0.0012,4.5,17.4,-43.5,353.17,-2.14,3.68,6973
-0.7015,0.4034,9.7049,-0.6127,0.3715,9.7804,-0.0098,-0.0049,-0.0024,4.5,17.3,-43.5,352.95,-2.18,3.58,7078
-0.7506,0.4417,9.7695,-0.6133,0.3657,9.7806,-0.0061,-0.0171,0.0037,4.4,17.2,-43,356.02,-2.17,3.6,7178
-0.6835,0.4154,9.7013,-0.6059,0.3636,9.7812,-0.0134,0.0073,-0.0122,4.3,17.2,-43.1,355.9,-2.13,3.55,7279
-0.8033,0.3651,9.7875,-0.603,0.3447,9.782,-0.0269,-0.0024,-0.0037,4.2,17.2,-43.1,355.8,-2.12,3.5,7381
-0.5626,0.4453,9.5529,-0.6047,0.3452,9.7819,-0.0049,0,0.022,4.2,17.2,-42.9,355.86,-2.02,3.54,7483
-0.5734,0.4573,9.6007,-0.5973,0.3309,9.7829,-0.0244,-0.0452,0.0086,4.2,17.2,-42.5,355.64,-1.93,3.54,7586
-0.7087,0.3687,9.7695,-0.5877,0.3101,9.7841,-0.0049,0.011,-0.0171,4.1,17.4,-42.2,355.37,-1.82,3.42,7687
-0.6261,0.3903,9.6546,-0.5895,0.3224,9.7836,0.0049,0.0049,0.0049,4.1,17.4,-42.4,355.43,-1.86,3.45,7789
-0.5602,0.4669,9.3817,-0.5913,0.3326,9.7832,0.0061,0.0012,0.0208,4.1,17.5,-42.7,355.89,-1.94,3.46,7892
-0.7518,0.3112,9.7432,-0.5836,0.3078,9.7844,-0.0147,0.0012,0.0061,4.1,17.5,-42.8,355.79,-1.84,3.42,7993
-0.5375,0.4142,9.7193,-0.5959,0.2946,9.7841,0,0.0244,0.0086,4.1,17.5,-42.5,355.65,-1.74,3.45,8095
-0.5303,0.3723,9.8318,-0.6021,0.2894,9.7839,-0.0244,0.0073,-0.0403,4,17.5,-42.4,355.83,-1.72,3.53,8198
0.2071,0.3519,9.8593,-0.6024,0.34,9.7822,0.1002,0.0293,-0.1833,4,17.7,-42.3,355.79,-1.81,3.51,8299
0.7661,0.5722,9.7636,-0.4836,0.4599,9.7839,0.2358,-0.347,-0.617,3.9,17.7,-42.4,355.44,-2.48,3.3,8401
0.3388,0.7566,10.1239,-0.4633,0.5348,9.7811,-0.0183,0.2309,-0.7294,3,17.3,-42.6,357.15,-3.13,2.71,8503
0.2334,0.8368,9.8043,-0.602,0.4942,9.7757,0,0.1295,-1.1496,2.1,17.2,-42.7,1.31,-2.94,3.25,8605
-1.0774,0.1784,9.6211,-0.8627,0.5482,9.7532,0.5009,0.2712,-1.3928,0.3,17,-43.1,11.07,-3.2,5.05,8707
-0.3555,0.7039,9.894,-1.1644,0.929,9.6929,0.3421,0.0293,-1.6127,-1.6,16.3,-44.1,19.62,-5.11,6.63,8810
-1.2426,0.1879,9.9467,-1.3201,0.9725,9.6686,0.2859,-0.0195,-1.8851,-3.3,15.2,-44.7,24.73,-5.71,7.57,8911
-0.6788,-0.8212,10.0245,-1.2211,1.1852,9.6579,0.4814,-0.4789,-2.2932,-7.9,11.1,-45.3,41.16,-6.55,7.62,9014
-1.0271,-1.4102,9.183,-1.2373,1.1282,9.6626,0.38,-0.5449,-2.6023,-11.5,7.3,-45.7,55.01,-6.38,7.55,9115
-0.31,-0.6704,8.9902,-1.2017,1.1219,9.6679,0.3238,-0.0916,-2.3286,-15.7,1.4,-46.4,74.96,-6.34,7.18,9218
-0.2885,-0.6859,9.432,-1.2276,1.051,9.6726,0.0843,0.0098,-2.6573,-16.9,-3.2,-45.7,84.63,-6.68,6.78,9319
-0.923,-0.6225,10.3058,-1.2022,0.8543,9.6951,0.3152,-0.2615,-2.6182,-17.7,-7.5,-46.7,97.11,-5.18,7.25,9421
-2.1727,-0.5363,9.6558,-1.1501,0.782,9.7075,0.2297,-0.2615,-2.3408,-16.3,-14.3,-44.9,116.37,-4.53,6.96,9523
-1.5969,0.0072,9.2979,-1.0132,0.8398,9.718,0.2663,-0.2578,-1.9108,-15.3,-18.7,-45.4,127.7,-4.88,6.17,9625
-2.4181,-0.5219,11.0349,-0.7829,0.8205,9.7408,0.2969,-0.3506,-1.4319,-13.3,-22.6,-43.3,139.81,-4.8,4.6,9727
-1.585,-0.1173,10.0245,-0.3778,1.1693,9.7294,0.1637,-0.5632,-1.2523,-12.7,-24.2,-42.6,141.21,-6.41,3.2,9830
-2.3092,-0.6153,9.8055,-0.2141,1.0798,9.7447,-0.1625,-0.0929,-1.2205,-11.3,-26.7,-41.6,151.81,-6.32,1.26,9932
-2.3439,0.1712,9.2009,-0.2229,0.9886,9.7541,0.0904,-0.0965,-0.8467,-10.1,-28.1,-41,155.71,-5.84,0.97,10033
-1.8411,0.4633,9.8114,-0.1352,0.9992,9.7547,0.0709,-0.2358,-0.6487,-8.9,-29.2,-40.6,158.98,-6.09,0.58,10135
-1.4856,0.3687,9.736,-0.2463,0.9006,9.7621,0.0428,-0.0929,-0.4007,-7.1,-29.8,-41.1,163.13,-5.39,1.25,10237
-1.4006,0.6033,8.4779,-0.286,0.7946,9.7702,-0.0929,-0.0684,-0.1466,-5.8,-30.1,-41,164.86,-4.65,1.68,10339
-0.182,0.9146,9.73,-0.0834,0.5623,9.7902,-0.2065,-0.0831,0.0672,-5.4,-29.7,-41.2,167.95,-3.76,1.14,10441
-0.723,0.7302,9.2332,-0.0781,0.3884,9.7986,-0.193,0.0843,0.0379,-5.4,-29,-41.1,168.53,-2.55,0.71,10543
-0.1987,0.4022,10.9954,0.098,0.182,9.8045,-0.2883,0.0171,0.0599,-6.1,-27.9,-41.5,168.4,-1.06,-0.57,10645
0.0084,0.425,9.9551,0.0949,0.2127,9.8039,0.0195,0.0244,0.0147,-6.7,-27.3,-41.6,165.81,-1.24,-0.55,10748
-0.1927,0.4094,8.8454,0.0092,0.2601,9.8032,0.1014,0.1442,-0.0098,-6.9,-27.1,-41.9,165.14,-1.4,-0.15,10849
-0.2059,0.395,9.6271,0.0735,0.2405,9.8034,0.022,-0.0318,-0.0696,-7.1,-27.1,-42.1,165.56,-1.36,-0.42,10952
-0.571,0.2239,9.997,0.0347,0.2616,9.8031,0.0464,0.0806,-0.1124,-7,-27,-42.1,165.46,-1.45,-0.37,11053
-0.4645,0.3352,9.3589,-0.0104,0.3525,9.8003,0.0269,0.0892,-0.0232,-6.7,-27.2,-41.8,164.84,-1.96,-0.11,11155
-0.1856,0.2562,9.5122,0.0122,0.3321,9.801,-0.0489,-0.1185,0,-6.4,-27.3,-41.7,166.56,-2.07,0.12,11257
-0.4178,0.1053,9.6953,0.0125,0.1282,9.8058,-0.1857,0.0452,0.0244,-6.3,-27.5,-41.6,167.31,-1.04,-0.13,11359
-0.0431,0.3496,9.7145,0.1139,0.0414,9.8059,-0.1063,-0.0941,0.0843,-6.5,-27.2,-42,167.54,-0.53,-0.17,11461
-0.0479,-0.0395,10.2843,0.1672,-0.0348,9.8052,-0.0904,-0.0574,0.0379,-6.9,-26.8,-42.4,166.8,0.18,-0.87,11564
-0.1221,0.1161,9.0381,0.186,0.0701,9.8046,0.1881,0.0574,0.0428,-7.1,-26.4,-42.5,166.43,-0.41,-1.09,11665
0.012,0.1233,9.0848,0.2107,0.1836,9.8027,0.0024,0.0428,0.0183,-7.4,-26.5,-42.4,166.48,-1.03,-1.27,11768
-0.0275,0.2622,9.1195,0.1533,0.126,9.8046,-0.1283,-0.0073,-0.0476,-7.5,-26.7,-42.1,166.52,-0.74,-0.9,11869
-0.2765,-0.0742,10.404,0.1771,-0.0588,9.8049,-0.1967,-0.0171,-0.0415,-7.5,-26.7,-42.2,166.96,0.15,-0.98,11972
-0.0419,0.0587,9.8055,0.23,-0.0865,9.8036,-0.0428,-0.0073,0.0171,-7.5,-26.3,-42.4,167.16,0.51,-1.34,12073
0.2885,-0.067,10.5692,0.3041,-0.1079,9.8013,-0.0318,-0.0367,0.0037,-7.7,-26.1,-42.6,165.4,0.5,-1.5,12176
-0.2155,0.5555,8.1032,0.2527,0.057,9.8032,0.3042,0.1148,0.033,-8.1,-25.9,-42.7,165.4,0.05,-1.62,12277
-0.0431,0.1784,10.1801,0.3271,0.0192,9.8012,-0.077,-0.1808,-0.0391,-8.2,-26,-42.8,165.29,-0.26,-1.63,12379
-0.0215,0.2693,9.5624,0.4128,0.0203,9.7979,-0.0757,-0.0831,-0.0562,-8.4,-26.2,-42.7,166.58,-0.12,-2.41,12482
0.2298,0.3519,9.8258,0.5019,-0.047,9.7937,-0.0586,-0.0867,-0.0513,-8.5,-26.2,-42.4,166.98,0.1,-2.68,12583
0.6416,0.4477,9.487,0.5302,0.0023,9.7923,0.1124,0.0086,-0.0049,-8.7,-26.3,-42.3,165.55,0.22,-3.07,12685
0.4525,0.6021,9.7743,0.5069,0.0369,9.7935,0,0.0464,-0.0672,-8.8,-26.3,-42.4,165.22,-0.22,-2.96,12787
0.5447,0.9685,9.3984,0.4489,0.0599,9.7962,0.0232,0.0733,-0.0489,-8.7,-26.3,-42.5,164.85,-0.24,-2.73,12890
0.4094,1.4018,8.928,0.3901,0.1043,9.7983,-0.0318,0.0489,-0.0916,-8.3,-26.4,-42.6,166.36,-0.52,-2.37,12991
0.0359,1.081,10.4926,0.4217,0.0843,9.7972,-0.0721,0.0586,-0.1222,-8.1,-26.3,-42.8,166.5,-0.62,-2.49,13094
0.0347,0.7326,10.89,0.4606,0.2024,9.7937,-0.0391,-0.0525,-0.0293,-7.8,-26.4,-42.9,166.62,-1.18,-2.69,13195
0.0706,0.9948,9.4272,0.4225,0.3524,9.7912,0.3616,0.1161,0.1222,-7.8,-26.6,-42.9,166.98,-1.45,-2.67,13298
-1.0953,-0.1197,9.9707,0.3241,0.3402,9.7954,0.1026,0.1735,0.1222,-7.7,-27,-42.7,166.02,-1.83,-2.16,13399
-0.097,0.6536,10.1634,0.2093,0.4814,9.7926,0.0452,0.1148,0.347,-7.8,-27.3,-42.6,164.47,-2.91,-1.49,13501
-0.2478,0.99,8.6299,0.0195,0.5748,9.7898,0.1307,0.2969,0.1662,-7.8,-27.5,-42.4,162.95,-3.13,-0.6,13603
-0.8248,1.4234,7.7081,-0.1899,0.6548,9.7829,0.1344,0.1759,0.1491,-7.6,-27.9,-42.1,160.68,-3.83,1.11,13705
-0.7015,1.2582,9.6151,-0.2134,0.6815,9.7806,-0.0134,-0.0147,-0.0208,-7.4,-28.1,-42,162.64,-3.97,1.13,13807
-0.2717,1.0523,11.303,-0.1362,0.6975,9.7809,0.0122,-0.0819,-0.0183,-7.1,-28.3,-42.1,162.93,-3.94,0.95,13909
-0.0251,-0.1053,12.5743,0.1901,0.6103,9.7858,-0.3567,-0.3726,-0.2773,-7.4,-28.4,-42,165.6,-4.38,-0.89,14011
-0.3304,0.5016,7.9476,0.0301,0.6634,9.7841,0.055,-0.0428,-0.099,-7.4,-28.4,-41.8,164.8,-3.66,-0.19,14113
0.1245,0.7111,9.1231,0.0069,0.591,9.7888,-0.0244,0.1698,-0.0342,-7.3,-28.4,-41.5,164.7,-3.46,-0.04,14215
-0.0611,0.9122,8.6574,-0.2172,0.5384,9.7895,-0.0696,0.2297,0.0281,-6.8,-28.2,-41.6,163.32,-3.26,0.91,14317
-0.0012,1.1708,10.0832,-0.3211,0.3482,9.7952,-0.1686,-0.0293,0.1405,-6.2,-28,-41.7,164.45,-2.03,1.88,14420
0.0658,0.9026,10.6255,-0.1461,0.4602,9.7948,0.0757,-0.2126,0.0244,-6.1,-27.8,-42,165.14,-2.64,1.24,14521
0.2263,0.4992,9.1734,0.1315,0.5134,9.7923,0.1576,-0.2101,-0.0953,-6.3,-27.7,-42,166.43,-3.11,0.27,14623
-0.6907,0.2945,7.343,0.2789,0.57,9.7861,0.4044,-0.0513,0.0391,-7.1,-27.8,-41.9,167.28,-2.69,-1.54,14725
-0.012,0.4764,9.0908,0.4126,0.4598,9.7872,-0.0379,0.0257,-0.0134,-7.8,-27.9,-41.5,166.47,-2.69,-2.41,14828
-0.4549,0.9972,8.2803,0.3127,0.4777,9.79,0.0171,0.0171,0.0073,-8.2,-27.8,-41.4,165.83,-2.67,-1.98,14930
-0.4286,1.0678,9.4188,0.194,0.4562,9.7941,-0.0892,0.193,0.0024,-8.2,-27.8,-41.5,165.23,-2.67,-1.58,15031
0.0778,0.4417,11.3677,0.3197,0.5805,9.7842,0.2724,-0.0476,-0.0367,-8.1,-27.8,-41.7,165.25,-3.14,-1.7,15133
-0.7733,-0.9278,13.5165,0.4623,0.6528,9.774,-0.5021,0.3861,-0.3103,-8.2,-28,-41.9,166.55,-3.82,-2.71,15235
-0.0024,0.2969,8.9866,0.1731,0.4784,9.7934,0.1539,0.1613,0.0037,-8,-28,-41.8,164.96,-2.9,-1.44,15338
0.2729,0.5351,9.5229,0.0906,0.3215,9.801,0.077,0.0525,0.0403,-7.6,-27.8,-41.8,164.07,-1.8,-0.53,15439
0.3807,1.1791,8.5246,-0.0289,0.3418,9.8006,0.0513,-0.0049,0.0208,-6.8,-27.4,-41.8,164.4,-2,0.17,15541
-0.0311,0.8595,9.9539,0.0108,0.2746,9.8028,-0.1772,-0.0586,-0.022,-6.4,-27.3,-41.6,166.45,-2.01,0.2,15643
0.1951,0.5686,10.8386,0.1336,0.3888,9.798,0.2199,-0.1368,0.1087,-6.4,-27.2,-41.6,167.67,-1.9,-0.55,15746
-0.2418,-0.6201,12.451,0.3079,0.4232,9.7927,-0.0269,-0.2016,-0.0464,-6.8,-27.4,-41.4,166.78,-2.58,-1.53,15848
-0.1604,-0.0407,10.6674,0.4476,0.3449,9.7904,-0.2688,-0.0745,0.0037,-7.5,-27.6,-41.4,169.08,-2.02,-2.62,15950
-0.3807,0.4357,9.2213,0.4135,0.2138,9.7956,-0.0244,0.0073,0.0904,-7.9,-27.4,-41.3,166.5,-1.25,-2.42,16052
-0.1927,0.7075,8.3965,0.3144,0.2552,9.7983,0.1271,0.044,0.0635,-8.1,-27.1,-41.9,165.83,-1.32,-1.95,16153
-0.3795,0.0335,11.3928,0.2833,0.2883,9.7983,0.0574,-0.193,0.0391,-8.2,-26.8,-42,165.24,-1.68,-1.66,16256
0.7817,0.425,10.0161,0.3136,0.4237,9.7925,0.2211,0.1698,0.0843,-8.4,-26.9,-42.2,165.38,-2.34,-1.92,16357
0.0946,0.0658,9.7648,0.3344,0.2639,9.7974,-0.1173,0.1747,-0.1148,-8.5,-27,-41.8,165.76,-1.54,-1.95,16460
0.2622,0.1975,9.6043,0.3312,0.2032,9.799,-0.1112,-0.0244,-0.0134,-8.3,-27.1,-42.1,165.87,-1.19,-1.94,16563
-0.018,0.8224,8.0158,0.2599,0.1764,9.8016,0.0098,0.1344,-0.0269,-8.1,-26.8,-42.1,165.88,-1.11,-1.92,16663
0.3699,0.3448,10.4675,0.2101,0.1881,9.8026,-0.099,0.1051,-0.0024,-7.8,-26.6,-42.3,164.99,-1.25,-1.37,16765
0.231,0.5363,9.7205,0.2004,0.3379,9.7988,0.3201,0.121,0.0086,-7.7,-26.5,-42.3,163.77,-1.97,-1.17,16867
0.182,-0.316,12.7731,0.1667,0.3882,9.7975,-0.3861,-0.1405,-0.0941,-7.6,-27,-42.1,163.94,-2.27,-0.97,16969
-0.5243,0.1664,8.9651,0.3466,0.3956,9.7925,0.2932,-0.3238,0.1588,-7.5,-27.2,-42.2,166.7,-1.72,-1.25,17071
0.2059,0.5818,8.8478,0.4347,0.4467,9.7868,-0.0782,0.0892,0.1417,-8.1,-27.5,-42.1,166.25,-2.61,-2.54,17174
0.0144,1.2594,7.8554,0.3513,0.4671,9.7892,0.0232,0.1894,-0.066,-8.5,-27.5,-42.4,166.12,-2.52,-2.44,17275
0.3783,0.8823,10.246,0.2367,0.4717,9.7924,0.0305,0.1148,-0.0611,-8.8,-27.7,-42.4,162.89,-2.76,-1.38,17377
-0.103,0.4154,9.9575,0.3919,0.6063,9.78,0.2309,-0.1026,-0.2517,-8.5,-27.8,-42.3,165.8,-3.07,-2.04,17479
-0.6416,-0.5028,12.0428,0.4628,0.3873,9.7881,-0.2712,0.3616,-0.1833,-8.2,-27.9,-42,167.09,-3.16,-2.89,17582
-0.2634,0.1844,9.8904,0.3461,0.3055,9.7958,-0.033,-0.1307,0.0342,-7.8,-27.7,-41.6,166.28,-1.79,-2.02,17683
0.1317,0.8332,8.2253,0.2374,0.1901,9.8019,-0.0574,0.1405,0.0147,-7.5,-27.4,-42.1,167.81,-1.24,-1.86,17785
0.4154,0.8009,8.4779,0.1073,0.28,9.8021,0.0855,0.2016,-0.0122,-7,-27,-42.5,166.29,-1.36,-0.9,17887
0.1437,0.5902,11.4383,0.0024,0.3934,9.7988,0.2224,-0.1429,0.1368,-6.7,-27.2,-42.6,164.53,-2.3,-0.01,17989
0.3053,-0.1939,10.4686,0.2138,0.5883,9.7867,0.0574,-0.3677,0.1234,-6.6,-27.5,-42.1,164.89,-3.2,-0.48,18092
-0.0515,0.2334,9.074,0.6486,0.5046,9.7722,0.2517,-0.5473,0.0855,-7.2,-27.8,-42.4,169.44,-2.6,-2.91,18193
0.0611,0.2095,8.4719,0.7049,0.3603,9.7746,-0.1417,0.0134,0.0391,-8,-27.8,-42.3,169.48,-2.37,-4.25,18295
0.3986,1.142,8.1211,0.6506,0.3489,9.7788,0.1552,0.0782,0.1466,-9.1,-27.4,-42.3,166.34,-2.04,-3.81,18397
0.3077,0.9984,9.7839,0.4793,0.464,9.7839,0.0403,0.1417,-0.0159,-9.3,-27.5,-41.7,164.77,-2.62,-2.97,18499
0.1269,0.595,11.7747,0.4335,0.5824,9.7797,0.3445,0.2004,-0.0037,-9,-27.7,-41.5,164.92,-3.02,-2.85,18601
-0.4046,-1.4736,14.2287,0.4176,0.3373,9.7919,-0.4728,-0.3433,-0.3641,-8.6,-28.2,-41.5,164.51,-3.78,-2.8,18704
0.6728,0.3926,7.0641,0.3298,0.4831,9.7892,0.1991,-0.292,0.0379,-8.1,-28.1,-41.8,165.17,-2.48,-1.47,18805
0.0395,0.7183,7.9404,0.3211,0.347,9.7952,-0.0892,-0.0122,-0.0281,-7.4,-28,-42,168.02,-2.03,-1.88,18907
-0.0922,0.7219,9.1279,0.2692,0.2384,9.8001,-0.0892,0.1515,0.0195,-7,-27.5,-42,167.68,-1.48,-1.83,19009
-0.1616,0.5064,10.7631,0.2163,0.2292,9.8016,0.0342,0,0.1527,-6.9,-27.3,-41.9,166.96,-1.23,-1.3,19112
-0.1101,0.7506,10.2975,0.2444,0.4407,9.7937,0.3311,-0.0049,0.336,-7,-27.2,-42.1,166.65,-2.58,-1.43,19213
0.419,0.006,12.9981,0.3469,0.3928,9.7926,-0.1332,-0.2529,0.2712,-7.2,-27.4,-42.2,166.69,-2.92,-1.54,19315
0.1041,0.3065,9.0477,0.4862,0.3441,9.7885,-0.0293,-0.3494,0.022,-7.9,-27.5,-42,166.28,-2.37,-2.5,19418
0.0646,0.8835,8.2325,0.3982,0.2932,9.7942,0.1405,0.0122,0.0782,-8.8,-27.2,-41.8,164.18,-1.71,-2.33,19520
-0.2825,0.9469,9.1231,0.2319,0.4032,9.7956,0.0049,0.1845,-0.1344,-9.1,-27,-41.9,162.41,-2.36,-1.36,19621
-0.2574,0.8643,9.42,0.1435,0.5006,9.7928,0.1344,0.011,-0.1478,-8.9,-27.1,-42.1,161.31,-2.66,-0.73,19723
0.5315,0.832,9.8773,0.2429,0.5985,9.7854,0.1979,-0.1038,-0.0391,-8.2,-27.5,-42.1,163.79,-3.22,-1.16,19825
0.2466,-0.0754,9.8426,0.2934,0.4118,9.7936,0.314,0.2382,0.0391,-8,-27.8,-42.3,166.43,-2.76,-2.37,19927
0.9254,0.2729,9.1602,0.3501,0.5191,9.7866,-0.0855,-0.1967,-0.088,-7.9,-28,-42.2,165.41,-3.34,-1.86,20029
-0.0239,0.7422,8.6694,0.3839,0.4868,9.787,-0.055,-0.0757,-0.0745,-7.9,-28.1,-42.1,166,-2.97,-2.14,20131
0.8344,1.5036,9.2464,0.4214,0.5055,9.7845,0.0525,-0.0489,0.0024,-7.8,-28.1,-41.8,166.51,-2.95,-2.47,20234
0.4357,0.9218,10.6195,0.5335,0.631,9.7718,0.1735,-0.2395,0.1539,-7.9,-28.1,-41.8,167.27,-3.69,-3.12,20335
0.3962,0.6381,9.7145,0.6966,0.8791,9.7423,0.2944,0.0183,0.1026,-8.2,-28.4,-41.7,168.06,-5.05,-3.92,20438
-0.1867,0.4812,9.1698,0.6657,0.7557,9.7548,0.1564,0.0733,0.2016,-8.9,-28.8,-41.5,166.47,-4.42,-3.9,20539
0.5578,0.6692,8.7903,0.6277,0.6649,9.7639,-0.2272,0.3457,0.0037,-9.3,-29.1,-41.3,166.94,-4.29,-4.18,20641
0.2358,1.1636,8.3606,0.5154,0.504,9.7801,-0.1295,-0.0134,0.077,-9.5,-28.9,-41.2,165.53,-3.21,-2.96,20744
0.3005,1.6903,8.8825,0.4797,0.5176,9.7812,0.0806,0.0379,0.0476,-9.6,-28.4,-41.7,162.86,-3.03,-2.81,20845
-0.0431,0.9421,11.6741,0.4903,0.6318,9.774,0.2419,0.0525,0.0195,-9.4,-28.2,-42.1,164.64,-3.27,-2.69,20948
1.8711,1.4569,9.5948,0.5766,0.9403,9.7444,-0.3286,-0.0623,-0.2957,-9.4,-28.5,-42.3,163.95,-5.24,-2.84,21049
0.6117,0.8056,8.5641,0.5111,0.5835,9.7759,-0.2883,0.1674,-0.2346,-9.3,-28.9,-42.2,165.58,-3.41,-2.99,21152
0.3005,0.7805,9.4798,0.4868,0.4321,9.785,-0.3555,-0.0562,-0.0464,-9.1,-28.9,-42.4,165.38,-3.1,-2.77,21254
0.3208,1.0726,9.3937,0.5375,0.334,9.7862,0.0855,-0.0586,-0.0415,-8.8,-28.3,-42.8,165.96,-1.95,-3.14,21355
1.4114,1.391,10.1754,0.6406,0.4308,9.7762,0.0232,-0.0757,-0.0941,-8.7,-28.1,-43.1,166.5,-2.41,-3.61,21457
0.2813,0.644,10.2627,0.5638,0.6551,9.7685,0.3445,0.0794,0.0073,-8.6,-28.2,-42.9,165.87,-3.26,-3.42,21559
-0.5387,-0.7219,12.5899,0.5324,0.6001,9.7738,-0.0024,0.2847,0.0171,-8.6,-28.6,-42.8,166.24,-4.01,-3.53,21661
0.0192,-0.0431,9.4547,0.6613,0.5581,9.7684,-0.1124,-0.485,0.1698,-8.3,-29.1,-42.4,169.03,-3.26,-3.87,21763
0.0371,0.6261,7.8925,0.6197,0.3797,9.7797,-0.0183,0.066,0.1649,-8.5,-29,-42.3,169.19,-2.3,-3.79,21865
0.0599,1.2713,9.1494,0.4904,0.3094,9.7895,-0.0049,0.1429,0.1491,-8.9,-28.5,-42.7,165.97,-1.93,-3.15,21967
-0.0263,0.6943,11.0049,0.3635,0.3489,9.7937,0.2236,0.0367,0.0391,-9.1,-28.1,-43.1,164.37,-2.04,-2.13,22069
-0.4417,0.3891,10.7488,0.3245,0.569,9.7848,0.3946,0.055,0.0696,-9,-28.4,-43.3,163.43,-3.33,-1.9,22171
-0.9194,-0.7147,12.5205,0.3129,0.4035,9.7934,-0.9053,0.4362,-0.3445,-8.7,-28.9,-42.8,164.78,-3.83,-2.54,22274
0.3795,0.2849,8.9914,0.3036,0.3104,9.797,-0.4838,0.259,-0.1234,-8.5,-29,-43,166.3,-2.41,-1.83,22375
-0.1664,0.8344,8.1882,0.0619,0.1569,9.8052,0.0354,0.2004,-0.1197,-7.9,-28.5,-43,164.2,-0.92,-0.36,22477
-0.1616,0.9313,8.3175,-0.17,0.112,9.8045,0.0342,0.1429,-0.1185,-7.1,-27.8,-43.4,164.58,-0.69,0.78,22579
-0.6919,0.5243,10.3609,-0.1932,0.0781,9.8044,0.0513,-0.2382,0.1319,-6.3,-27.5,-43.3,165.42,-0.35,1.28,22682
0.237,0.5674,9.4164,-0.0832,0.26,9.8028,0.4227,0.0635,0.2505,-5.9,-27.6,-43.6,166.89,-1.06,0.43,22783
0.1568,0.3029,9.6403,0.0563,0.2529,9.8032,0.2199,-0.3616,0.0586,-6.1,-27.7,-43.3,167.92,-1.48,-0.33,22885
-0.5399,0.0982,7.3083,0.165,0.2569,9.8019,-0.1258,0.336,-0.0965,-7,-28,-42.8,166.85,-1.5,-0.96,22988
-0.7602,0.577,8.43,0.0069,0.0892,9.8062,-0.0623,0.0562,-0.0208,-7,-27.9,-42.8,165.83,-0.64,-0.07,23089
-0.6141,0.9301,9.6079,-0.118,0.0314,9.8059,-0.0916,0.1735,-0.0098,-6.6,-27.6,-43.2,165.35,-0.26,0.36,23191
-0.7458,0.1113,11.7603,-0.0314,0.1121,9.806,0.314,-0.0415,0.0757,-6.3,-27.3,-43.5,166.9,-0.25,0.32,23293
-0.3065,-1.0092,11.7005,0.1141,0.1716,9.8045,-0.5742,0.3189,-0.2663,-6.5,-27.3,-43.6,168.18,-1,-0.67,23395
0.0874,-0.0718,9.0992,0.1154,-0.12,9.8052,0.0794,-0.2395,-0.0696,-6.6,-27.1,-43.5,165.95,0.37,-0.23,23497
-0.4022,0.4956,7.3682,0.1049,-0.3398,9.8002,0.0183,0.0464,-0.1014,-6.7,-26.8,-43.4,167.19,2,-0.69,23599
-0.6668,0.3328,8.5389,0.0728,-0.3721,9.7993,0.0635,0.0122,0.0452,-6.4,-25.9,-43.9,168.41,2.17,-0.43,23701
-0.2933,0.2442,10.5333,0.0229,-0.3036,9.8019,0.0941,0.055,0.1136,-6.2,-25.6,-44.1,168.1,1.99,-0.27,23803
0.4453,0.5279,11.0229,-0.0138,0.0607,9.8065,0.3494,0.1429,0.1808,-6.1,-25.9,-43.8,167.15,0.12,-0.06,23905
-0.7901,-1.0858,11.4754,0.0721,-0.0391,9.8063,0.1894,-0.2676,-0.0159,-6.1,-26.3,-43.5,167.53,0.12,-0.31,24007
-0.3376,-0.3053,9.3494,0.4022,0.0782,9.7981,-0.3616,0.1246,-0.0684,-6.7,-27.1,-43.1,168.74,-0.99,-2.36,24109
0.4357,1.0343,7.3897,0.423,0.0802,9.7972,0.2382,-0.1991,0.1564,-7.4,-27.4,-43,169.08,-0.47,-2.47,24211
0.2215,1.2929,8.9914,0.3603,0.028,9.8,0.0403,-0.055,0.077,-7.7,-27.4,-43,166.8,-0.23,-2.27,24313
0.0036,-0.0443,12.4091,0.3495,0.0104,9.8004,0.1491,0.2053,0.0037,-7.9,-27.4,-42.8,166.86,-0.22,-2.3,24416
1.6041,-0.9756,10.5501,0.5513,0.2013,9.7891,0.2175,-0.4594,-0.0745,-7.8,-27.5,-42.6,166.38,-0.98,-2.18,24518
-0.0443,-0.0946,9.25,0.3914,-0.0315,9.7988,0.4472,0.033,0.0977,-7.9,-27.4,-42.5,166.89,0.18,-2.29,24619
-0.6512,0.1161,9.5026,0.3293,-0.1147,9.8004,0.0635,0.4386,0.0134,-7.6,-27.4,-42.6,167.07,-0.05,-2.41,24722
-0.8128,0.4154,8.406,-0.0955,-0.0105,9.8062,0.1124,0.2224,-0.0525,-6.7,-27.2,-43.2,165.37,0.13,0.1,24823
-0.7003,0.7769,9.0333,-0.3343,0.0541,9.8008,0.0684,0.1344,0.0965,-5.9,-27.4,-43.4,164.85,-0.19,1.7,24925
-0.6201,0.4992,10.7967,-0.4324,0.1194,9.7964,0.0367,-0.0281,0.2676,-4.7,-27.7,-43.5,165.92,-0.59,2.55,25027
-1.4162,-1.4222,13.6841,-0.4777,-0.0687,9.7948,-0.0757,0.0476,0.2541,-4.5,-27.7,-43.5,167.85,0.4,2.79,25129
-0.0622,-0.0431,8.0924,-0.3194,-0.0045,9.8014,0.215,-0.3079,0.3457,-4.7,-27.4,-43.6,165.98,-0.05,2.26,25232
-0.8823,-0.1425,8.7185,-0.3841,-0.2859,9.795,-0.1894,0.1417,0.0538,-5.5,-26.8,-44,166.63,1.67,2.25,25333
-0.8356,0.7709,8.4372,-0.3718,-0.2258,9.797,0.0611,0.0855,-0.0208,-5.8,-26.3,-44.3,164.25,1.51,2.16,25435
-0.8021,0.7266,9.1506,-0.418,-0.1197,9.797,0.1148,0.0134,-0.1576,-6,-26.1,-44.3,163.65,0.81,2.36,25537
0.1856,0.1724,10.8757,-0.3659,0.0133,9.7998,0.4288,0.0538,0.2089,-5.9,-26.2,-44,163.98,0.63,2.09,25640
-0.4633,-1.306,12.5324,-0.3787,-0.0619,9.7991,0.0171,0.3005,-0.121,-5.9,-26.6,-43.7,164.72,-0.33,1.71,25741
-0.2622,-0.3819,9.1842,-0.3492,0.0659,9.8002,0.1649,-0.2199,-0.1112,-5.7,-26.9,-43.3,163.64,-0.35,2.47,25844
-0.5351,0.5842,7.4136,-0.2712,-0.0694,9.8027,-0.0354,-0.0476,-0.066,-5.5,-27.3,-43.4,167.03,0.26,1.69,25945
-0.2933,0.6249,9.6678,-0.2603,-0.1312,9.8023,0.0049,0.0098,0.1454,-5.3,-27.2,-43.7,167.4,0.77,1.52,26047
-0.6967,0.2765,11.1725,-0.3468,0.0351,9.8005,0.1258,0.1063,0.3677,-5.4,-27.1,-43.9,166.74,0,1.78,26150
0.0611,0.9421,9.1626,-0.3471,0.3096,9.7956,0.4313,-0.0208,0.3274,-5.6,-27.2,-43.7,163.6,-1.17,2.19,26251
-0.1628,-0.0611,9.1566,-0.2404,0.0749,9.8034,0.0782,-0.1124,0.0428,-6,-27.5,-43.2,165.19,-0.44,1.4,26353
-0.2933,-0.1161,8.0098,-0.067,0.0243,9.8064,-0.1674,-0.0403,-0.2077,-6.4,-27.6,-42.8,167.17,-0.44,0.4,26456
-0.8727,0.1963,9.2285,0.0236,-0.1769,9.805,-0.259,-0.1307,-0.2309,-6.7,-27.2,-42.7,166.05,1.03,-0.14,26558
-0.4944,0.7697,9.2943,0.0439,-0.1835,9.8048,-0.088,0.0709,-0.2285,-6.8,-26.9,-43.1,166.32,1.07,-0.26,26659
-1.0187,-0.2634,11.746,-0.0551,-0.2141,9.8042,0.0538,0.0953,-0.1478,-6.5,-26.7,-43.3,167.51,1.19,0.24,26761
1.4461,-0.565,11.3713,-0.0289,-0.1854,9.8049,0.0171,-0.1454,-0.0379,-6,-26.6,-43.6,167.24,0.83,0.33,26863
0,0.1879,8.6921,-0.1583,-0.2731,9.8016,0.2492,-0.077,-0.0599,-5.5,-26.4,-43.7,168.32,2.03,0.9,26965
-0.7566,-0.5602,10.635,0.0472,-0.3501,9.8003,0.0354,-0.0195,-0.0867,-5.1,-26.4,-43.9,169.45,1.51,0.07,27067
-1.2582,0.6967,7.58,0.0946,-0.1477,9.8051,-0.0086,0.2615,0.1515,-4.7,-26.2,-44.1,170.53,1.27,-0.65,27169
0.2191,0.5279,9.6774,-0.0947,-0.0582,9.806,0.171,0.1271,0.303,-4.7,-26.6,-44,168.75,0.34,0.55,27271
0.6632,0.5614,10.9164,-0.1129,0.1457,9.8049,0.4801,-0.1625,0.3396,-4.8,-27.1,-43.6,168.09,-0.32,0.84,27374
-0.4872,-0.674,10.6315,0.4953,0.2628,9.7906,0.1405,-0.5938,0.2016,-5.9,-27.9,-42.8,171.9,-1.54,-2.9,27476
1.2474,0.2155,10.3597,1.1076,0.1769,9.7423,-0.3018,-0.5168,0.1698,-7.3,-28.3,-42.2,174.68,-1.46,-6.09,27577
0.3316,0.9313,8.6251,1.0663,0.0422,9.7484,0.0195,0.1368,0.0977,-9.7,-28,-41.7,169.07,-0.25,-6.24,27679
-0.3029,1.342,8.6766,0.77,0.1494,9.7752,-0.0904,0.3592,0.0965,-10.5,-27.7,-41.7,167.89,-0.76,-5.56,27781
0.7817,0.5698,11.892,0.5158,0.2461,9.79,0.2224,0.2566,0.044,-10.3,-27.5,-41.7,164.21,-0.95,-3.48,27884
0.8595,0.3603,9.827,0.4429,0.5777,9.7796,0.2419,-0.0574,-0.1955,-9.7,-27.9,-41.8,162.54,-2.75,-2.5,27985
0.1556,-0.1808,8.497,0.1321,0.3366,9.8,0.171,-0.0159,0.1185,-8.6,-28.6,-41.7,162.97,-1.97,-0.77,28087
0.5171,0.3531,9.2356,0.2094,0.2586,9.801,0.0269,-0.1588,0.0073,-7.6,-28.9,-42,165.71,-1.51,-1.22,28189
-0.3172,0.4741,9.6774,0.2176,0.1677,9.8028,-0.1344,0.0867,-0.0635,-7.2,-28.7,-42.3,168.3,-1.2,-1.61,28291
-0.3112,0.9146,8.8825,0.1155,0.2674,9.8023,0.0489,0.1258,0.2077,-7,-28.6,-42.9,166.86,-1.56,-0.68,28393
-0.0922,0.6045,11.6514,-0.0368,0.2497,9.8034,0.2346,0.1417,0.2908,-7.2,-28.4,-42.7,165.68,-1.52,-0.2,28496
-0.267,-0.3436,12.6282,4.00E-04,0.3389,9.8008,-0.0281,-0.182,0.099,-7.3,-28.5,-42.7,164.53,-2.56,0.28,28597
-0.2382,0.6045,9.0788,0.0463,0.2826,9.8025,0.2712,-0.3128,0.1405,-7.5,-28.3,-43,165.23,-1.21,0.19,28699
0.0443,0.5363,8.9483,0.1603,0.2736,9.8015,-0.0757,-0.0476,-0.0831,-7.9,-28.4,-42.9,164.64,-1.83,-0.92,28801
-1.0343,1.1121,8.0972,0.1196,0.4194,9.7969,0.2334,0.11,-0.0574,-8,-28.3,-42.9,164.54,-2.02,-0.91,28903
0.0575,1.3647,9.6953,0.1732,0.587,9.7875,0.1222,-0.0648,0.0452,-8.2,-28.8,-42.2,164.65,-3.43,-1.01,29006
-0.073,1.1265,10.908,0.1696,0.6322,9.7848,0.0599,-0.0538,-0.2627,-8.2,-29,-42.2,164.78,-3.57,-1.15,29107
-0.4393,-0.6895,12.8317,0.0493,0.2675,9.8029,-0.0061,0.3384,-0.2004,-8,-29.3,-42.3,164.99,-2.54,-1,29210
0.2119,0.0718,9.9108,-0.028,0.3219,9.8013,0.0122,-0.0794,-0.0354,-7.1,-29.1,-42.6,165.52,-1.88,0.16,29311
-0.0012,1.0211,7.8063,-0.1577,0.2879,9.8012,-0.1197,0.1784,-0.0305,-6.4,-28.9,-42.9,166.68,-1.65,0.76,29414
-0.2227,1.3479,8.4013,-0.2984,0.2063,9.7999,-0.0049,0.033,0.0489,-5.6,-28.5,-43.2,164.98,-1.13,1.72,29515
-0.668,0.662,10.5967,-0.2886,0.1768,9.8008,-0.0599,-0.0281,0.1063,-5.3,-28.3,-43.3,166.79,-1.06,1.85,29617
0.7602,-0.182,9.6331,0.0034,0.381,9.7992,0.1723,-0.0977,0.2211,-5.4,-28,-43.1,168.51,-2.2,0.47,29719
-0.5567,-0.0108,10.4495,0.1091,0.2229,9.8035,0.3983,-0.2663,0.2162,-6,-27.9,-42.9,168.57,-0.91,-0.63,29822
-0.3938,0.3543,8.6311,0.3104,0.3355,9.796,-0.0586,-0.1136,0.0415,-7.2,-28.1,-42.7,168,-1.96,-1.81,29923
-0.5674,0.8176,9.0094,0.1703,0.2541,9.8019,0.0586,0.1038,0.011,-7.7,-28,-42.7,165.56,-1.32,-1.39,30025
-0.2622,1.719,8.7436,-0.0286,0.3354,9.8009,0.044,0.099,-0.0208,-7.8,-28.1,-43,163.49,-1.86,-0.16,30127
-0.3603,0.2574,13.0424,0.085,0.3757,9.7991,0.0073,-0.3042,-0.11,-7.5,-28.1,-42.9,165.18,-2.15,-0.03,30229
-0.6177,-0.8452,11.5472,0.0992,0.5397,9.7913,-0.1258,-0.1747,-0.2773,-7.1,-28.7,-42.7,166.3,-3.65,-0.82,30332
0.5423,0.3711,7.999,0.07,0.5627,9.7902,-0.0305,-0.0819,-0.044,-6.9,-29.1,-42.6,165.59,-3.35,-0.28,30433
-0.0706,1.0762,7.3729,-0.0493,0.3789,9.7992,-0.2309,0.1869,-0.0745,-6.7,-29.2,-42.6,165.62,-2.41,-0.04,30536
-0.0036,1.142,9.1961,-0.2097,0.1725,9.8029,-0.1991,0.1564,0.0415,-6.3,-28.8,-43,166.24,-1.01,1.23,30637
-0.3412,1.1121,10.1263,-0.2995,0.1652,9.8007,-0.022,-0.0403,0.1539,-5.9,-28.4,-43.3,164.86,-0.94,1.85,30739
-0.7793,0.929,10.5632,-0.1953,0.3058,9.7999,0.11,-0.0855,0.3005,-5.7,-28.1,-43.5,165.92,-1.35,1.03,30842
-1.1025,-0.5902,11.1977,-0.0062,0.1762,9.8051,-0.2944,-0.1967,-0.033,-6,-28,-43.4,167,-1.43,0.29,30943
-0.0156,-0.0431,8.8621,0.2753,0.2557,9.7994,-0.0171,-0.1148,0.0855,-6.9,-28.1,-43.1,166.67,-1.32,-0.8,31045
-0.0946,0.8978,8.3354,0.1834,0.273,9.8011,0.066,0.0929,0.0489,-7.9,-28.1,-43.1,165.04,-1.43,-1.08,31148
-0.4058,1.0618,8.8298,0.0761,0.3226,9.801,0.0916,0.1442,-0.1063,-8.2,-28.2,-43.2,163.91,-1.89,-0.44,31249
-1.2689,0.6572,11.9435,-0.1121,0.4656,9.7949,0.0562,-0.1234,-0.2285,-7.9,-28.4,-43.2,161.71,-2.6,0.81,31351
0.8918,1.3958,9.0609,0.1138,0.7329,9.7786,-0.0599,-0.5278,-0.1894,-7.5,-28.8,-43.3,164.1,-3.21,0.75,31453
1.087,0.267,8.5892,0.1375,0.5911,9.7879,-0.171,0.1784,-0.1148,-7.1,-29.3,-42.8,166.07,-2.89,-0.47,31555
-0.0251,0.8152,8.0828,0.0039,0.4781,9.795,-0.0696,0.2798,-0.0684,-6.9,-29.6,-42.4,166.56,-2.75,-0.44,31657
-0.431,1.3527,9.0082,-0.1534,0.422,9.7964,-0.0721,0.1148,0.0037,-6.5,-29.5,-42.3,166.51,-2.42,0.72,31759
-0.7661,0.9218,9.748,-0.2469,0.4569,9.7929,0.0024,0.1979,0.1429,-6.1,-29.4,-42.5,165.89,-2.69,1.08,31861
-0.1664,1.3228,11.1378,-0.3023,0.5441,9.7869,0.16,-0.0098,0.2334,-5.8,-29.3,-42.8,164.63,-2.99,1.8,31964
-1.5407,-0.7578,11.7424,-0.1689,0.4618,9.7943,-0.2639,-0.3018,-0.0342,-5.6,-29.4,-42.9,165.96,-2.7,0.99,32065
-0.182,0.5962,8.4563,0.0853,0.4531,9.7958,-0.237,-0.2871,0.1002,-6.1,-29.5,-42.8,168.22,-2.65,-0.5,32168
-0.3232,1.0523,8.9603,0.2696,0.2346,9.8001,-0.0489,-0.0012,-0.0428,-7.3,-29,-42.6,168.03,-1.43,-1.44,32269
-0.4717,1.3408,8.9172,0.202,0.3113,9.7996,0.1503,0.0623,-0.0916,-8,-28.7,-42.6,165.82,-1.56,-1.29,32371
-0.3723,0.6967,11.9746,0.0996,0.4471,9.7959,0.1698,-0.1429,-0.1772,-8.2,-28.5,-42.8,163.79,-2.61,-0.58,32473
1.0546,-0.5375,11.6322,0.236,0.6272,9.7837,-0.4215,-0.0391,-0.3836,-7.8,-28.9,-42.7,164.04,-3.69,-0.69,32576
0.6357,0.8068,7.1048,0.0541,0.5435,9.7914,0.259,0.1283,0.0574,-7.4,-29.2,-43,165.72,-3.18,-0.32,32678
-0.5459,0.2478,10.2663,0.0563,0.3509,9.8002,-0.1173,0.1808,-0.0929,-7.3,-29.3,-42.8,166.71,-2.77,-0.86,32780
-0.3843,1.2857,8.3175,-0.0706,0.3265,9.801,-0.0012,0.1002,0.0318,-6.8,-29,-43,165.54,-1.98,0.12,32882
-0.255,1.3096,9.2153,-0.1503,0.3519,9.7992,-0.0049,0.1038,0.0867,-6.4,-28.9,-42.6,166.54,-1.97,0.78,32983
-0.158,1.2103,12.5935,-0.067,0.5342,9.7919,0.2309,-0.0464,0.1112,-6,-28.9,-42.9,166.7,-3.12,0.39,33085
-0.5195,-0.3017,11.4778,0.0537,0.7382,9.7787,-0.1955,-0.0476,-0.2248,-6.2,-29.2,-42.9,166.34,-4.57,0.26,33188
-0.0539,0.6416,8.4312,0.3411,0.7919,9.7687,0.1955,-0.4728,0.1234,-6.8,-29.8,-42.6,167.34,-4.34,-1.35,33289
-0.3579,0.7087,9.2859,0.4411,0.6472,9.7753,-0.2272,-0.0415,-0.0623,-7.6,-30.1,-42.3,167.15,-3.9,-2.49,33391
-0.1796,1.3001,8.509,0.3484,0.7058,9.775,0.0305,0.1539,-0.0819,-7.9,-30,-42.1,166.86,-4.04,-2.32,33493
-0.0658,1.0702,10.2891,0.2057,0.6774,9.7811,-0.0648,0.1258,-0.0941,-7.8,-30,-42,165.25,-3.96,-1.2,33595
0.6943,0.8655,9.7109,0.2174,0.7623,9.7746,0.2822,-0.0244,-0.0061,-7.5,-30,-42.1,166.96,-4.07,-1.04,33697
-0.0431,-0.4094,12.8245,0.2493,0.3792,9.7961,-0.3323,-0.0538,-0.2077,-7,-30.1,-42,167.88,-3.47,-1.52,33799
0.1951,0.7494,9.1842,0.1704,0.3094,9.8003,-0.011,0.0318,-0.0098,-6.6,-29.6,-42.7,167.86,-1.96,-1.16,33902
0.0646,1.0918,8.5688,0.0561,0.326,9.8011,-0.0024,0.1393,-0.0367,-6.4,-29.1,-43.1,168.53,-1.9,-0.55,34003
-0.1724,1.16,9.8426,-0.0521,0.4361,9.7968,0.1063,0.1258,-0.0281,-5.9,-28.7,-43.3,167.04,-2.55,0.3,34105
-0.2574,0.9409,11.2958,-0.1383,0.6253,9.7857,0.3861,-0.1588,0.1552,-5.5,-29,-43.2,167.92,-3.66,0.81,34208
-1.3036,-0.3328,11.1737,0.1002,0.7847,9.7747,0.0367,-0.2798,0.0709,-5.4,-29.7,-43,168.85,-5.2,0.16,34309
-0.6979,0.2753,8.7448,0.3027,0.5896,9.7842,-0.1112,-0.2407,0.1491,-5.8,-30.3,-43,169.69,-3.67,-1.4,34411
0.079,0.6752,9.0225,0.3816,0.3858,9.7916,-0.044,-0.0134,0.2199,-6.9,-29.9,-42.7,169.34,-2.25,-2.23,34514
-0.2717,1.1169,8.9783,0.2545,0.3906,9.7956,0.066,0.033,0.0379,-7.4,-29.1,-42.6,167.96,-2.21,-1.56,34615
-0.6907,0.8703,10.0173,0.1182,0.4373,9.7962,0,0.1784,-0.0806,-7.8,-28.6,-42.8,164.54,-2.56,-0.69,34717
1.8627,1.1133,10.5596,0.1154,0.4937,9.7935,0.1258,-0.2358,0.0904,-7.6,-28.6,-42.7,164.14,-2.73,-0.47,34820
-0.0479,-0.6093,11.4718,0.1468,0.2788,9.8016,0.2505,-0.1979,0.0305,-7.4,-28.6,-42.5,167.07,-1.4,-0.79,34921
0.1939,-0.2945,9.9144,0.187,0.1571,9.8036,-0.3531,0.1332,-0.171,-7.3,-28.6,-42.5,168.03,-1.44,-1.47,35024
-0.2693,0.4142,8.6682,0.0545,0.1721,9.805,-0.077,0.226,-0.1038,-7.1,-28.3,-42.8,166.76,-1.14,-0.82,35125
0.3531,1.0283,9.5229,0.0224,0.3204,9.8014,0.1527,0.1197,0.0892,-6.7,-28.2,-43,165.69,-1.39,-0.17,35227
-0.1161,1.397,10.7619,-0.0848,0.6099,9.7873,0.2615,-0.1112,0.2028,-6.2,-28.6,-43.2,166.54,-3.06,0.51,35330
-0.2071,0.8918,10.0137,-0.0125,0.7369,9.7789,0.0501,-0.0147,0.1906,-6.2,-29.1,-43,166.46,-4.39,0.23,35431
-0.5758,0.4202,10.3226,0.0434,0.5485,9.7912,0.2162,0.0012,0.2431,-6.5,-29.3,-42.7,168.32,-3.31,-0.7,35534
-0.1329,0.486,7.9224,0.1943,0.4983,9.7921,-0.2627,-0.1796,0.0672,-7.2,-29.4,-42.4,166.65,-3.3,-0.96,35636
-0.3268,0.9409,9.1566,0.284,0.3591,9.796,-0.0183,-0.0061,0.1271,-8.2,-28.8,-42.5,166.12,-2.1,-1.66,35737
-0.17,1.4653,9.4212,0.1601,0.533,9.7908,0.1246,0.1185,0.055,-8.6,-28.8,-42.8,163.67,-2.53,-1.42,35840
0.073,0.9158,11.2097,0.1878,0.6397,9.784,0.2505,0.1698,0.0159,-8.9,-28.8,-42.7,162.88,-3.53,-1.21,35941
0.5423,0.2394,11.4168,0.2285,0.7115,9.7781,-0.0831,-0.1784,-0.1845,-8.6,-29.3,-42.9,162.51,-4.51,-1.28,36044
1.0594,1.0044,7.8195,0.0701,0.7037,9.7811,0.0635,-0.066,-0.0354,-8.2,-29.7,-42.5,163.86,-4.25,-0.33,36146
-0.3555,0.5507,8.8358,-0.1003,0.4511,9.7958,0,0.1564,-0.1002,-7.7,-29.7,-43,164.16,-3.37,-0.29,36247
-0.4752,1.0858,8.8909,-0.199,0.38,9.7973,-0.1075,0.1283,-0.0476,-7,-29.2,-43.1,164.04,-2.25,1.07,36349
-0.1113,0.9038,10.4986,-0.2068,0.5193,9.7907,0.1295,0.0391,0.1503,-6.3,-28.9,-43.5,165.66,-2.74,1.18,36451
-0.2071,1.1708,9.4116,-0.1267,0.7384,9.778,0.2053,-0.0941,0.336,-6.3,-28.9,-43.4,165.46,-3.97,0.98,36553
-0.2765,0.5375,8.2648,-0.0312,0.5385,9.7918,0.2077,-0.4093,0.3677,-6.8,-29.2,-43.2,164.98,-3.15,0.18,36655
0.2538,0.255,8.8562,0.2856,0.5204,9.7887,-0.1991,-0.2053,0.1148,-7.6,-29.3,-42.8,165.1,-3.39,-1.3,36758
-0.2418,1.4162,8.0589,0.2947,0.3884,9.7945,0.0721,0.0953,0.0244,-8.7,-28.9,-42.8,164.22,-2.27,-1.72,36859
-0.407,1.5131,9.2943,0.1822,0.4659,9.7939,0.0086,0.077,-0.16,-9.1,-28.7,-43,163.35,-2.61,-1.23,36961
-0.4345,0.7242,12.0644,0.2142,0.5134,9.7909,0.0269,-0.1735,-0.27,-9,-28.5,-43.3,162.55,-2.84,-1.18,37064
0.0467,-0.4669,12.8174,0.436,0.5072,9.7838,-0.5143,-0.2199,-0.3384,-8.8,-28.8,-43.6,165.23,-2.96,-2.55,37165
1.1013,0.6488,8.6335,0.2816,0.6323,9.7822,-0.0464,0.1026,-0.0538,-8.5,-29,-43.6,165.53,-3.7,-1.65,37267
0.2346,1.0151,7.2113,-0.0036,0.6301,9.7864,0.0709,0.4545,-0.0831,-8.2,-29.2,-43.6,162.93,-3.68,0.02,37369
-0.2167,1.3922,7.7237,-0.3442,0.6439,9.7794,-0.077,0.3128,-0.0916,-7.4,-29.4,-43.4,163.24,-3.88,1.12,37472
-0.9122,0.8871,10.2376,-0.4484,0.6093,9.7774,0.0782,0.0342,0.1124,-6,-29.7,-43.5,163.87,-3.41,2.57,37573
-0.2574,1.2773,10.9223,-0.1609,0.7696,9.7751,-0.0892,-0.2639,0.1686,-5.2,-29.9,-43.2,167.17,-4.34,1.43,37675
-0.753,0.2406,9.4355,-0.0203,0.5643,9.7904,-0.2395,-0.0281,0.0892,-5.7,-29.8,-43,167.5,-3.3,0.12,37777
-0.0431,0.4729,8.6874,0.2419,0.5419,9.7887,-0.1527,0,0.1503,-6.6,-29.7,-42.9,167.72,-3.43,-1.39,37880
-0.401,0.9601,8.8957,0.2708,0.3776,9.7956,0.0929,0.0929,0.0342,-7.7,-29.3,-43.1,166,-2.21,-1.58,37981
-0.3232,1.5143,9.2033,0.1888,0.4379,9.7951,-0.0208,0.1185,-0.055,-8.2,-29,-43.4,165.45,-2.56,-1.31,38083
-1.1959,0.3567,12.5193,0.1781,0.5657,9.7887,0.0513,0.0305,-0.1649,-8.2,-29,-43.6,165.09,-3.08,-1.2,38186
1.2462,0.1891,9.6235,0.2918,0.6441,9.7811,-0.5791,0.0134,-0.2834,-8.1,-29.3,-43.5,164.27,-4.25,-1,38287
1.3479,0.7697,7.525,0.222,0.5579,9.7882,0.2114,0.0134,0.0012,-7.8,-29.6,-43.2,165.45,-2.82,-1.03,38389
-0.1927,1.0451,6.9671,0.1745,0.4266,9.7958,0.0611,0.0623,-0.2162,-7.6,-29.5,-43.4,165.05,-2.49,-1.02,38492
-0.3256,0.9421,9.0046,0.0833,0.322,9.801,0.0648,0.0464,-0.022,-7.2,-29.2,-43.7,166.66,-1.9,-0.62,38593
-0.3567,0.9984,10.1718,-0.0908,0.3909,9.7984,0.077,0.1124,0.1723,-6.4,-28.9,-43.8,167.24,-2.12,0.25,38695
0.4345,1.385,9.4822,-0.0608,0.5694,9.7899,0.3067,-0.077,0.2553,-6,-29,-43.4,166.67,-3.33,0.36,38797
-0.31,-0.0622,10.6494,0.1548,0.391,9.7976,-0.1002,0.1649,0.1038,-6.1,-29.1,-42.9,168.96,-2.28,-0.91,38899
0.2622,0.4262,8.3043,0.3734,0.6888,9.7753,-0.0794,-0.1136,0.0354,-6.8,-29.4,-42.9,168.32,-4.03,-2.19,39001
-0.146,0.9589,8.7269,0.43,0.5955,9.7791,-0.0794,-0.0147,-0.0782,-7.7,-29.5,-42.9,166.94,-3.48,-2.52,39103
-0.4262,1.1552,9.3817,0.366,0.5558,9.784,-0.0794,0.1491,-0.0672,-8.2,-29.5,-43.2,166.95,-3.37,-2.5,39205
-0.0838,0.6608,11.6646,0.27,0.5399,9.7881,-0.0513,0.0489,-0.1014,-8.2,-29.6,-43,166.16,-3.28,-1.63,39308
-0.0706,-0.5938,11.9722,0.3466,0.566,9.7842,-0.5864,0.1515,-0.2688,-7.7,-29.6,-43.4,166.73,-3.31,-2.03,39409
1.664,0.7123,7.8685,0.4277,0.4457,9.7872,0.3494,-0.2431,0.121,-7.4,-29.4,-43.6,168.78,-2.34,-2.09,39511
0.0527,0.7266,8.1116,0.3201,0.2414,9.7985,0.0232,0.171,-0.1478,-7.2,-29,-43.9,168.73,-1.41,-1.87,39614
-0.4717,0.8859,8.6766,0.1615,0.2216,9.8028,0.0318,0.0379,-0.0257,-6.8,-28.7,-43.9,167.68,-1.38,-1.17,39715
-0.2634,0.7793,10.0449,0.0358,0.2692,9.8029,0.0061,0.1588,0.0574,-6.1,-28.6,-44.1,168.69,-1.42,-0.54,39817
0.4381,1.1061,11.5532,0.0384,0.4348,9.7969,0.2431,0.0073,0.2822,-5.6,-28.9,-44,167.79,-2.13,-0.11,39920
-1.4641,-1.3719,13.2555,0.178,0.2128,9.8027,-0.1881,0.2443,0.1038,-5.6,-29.4,-43.4,169.55,-1.91,-1.23,40022
-0.158,0.2263,8.084,0.2899,0.3546,9.7959,0.2505,-0.2944,0.1087,-5.9,-29.4,-43,169.76,-2.01,-1.38,40123
-0.3376,0.6273,8.497,0.2555,0.2555,9.8,-0.0244,-0.1124,-0.0415,-6.4,-29.3,-42.5,170.03,-1.49,-1.49,40225
-0.4741,0.984,8.6562,0.2728,0.2619,9.7994,0.0611,0.0403,-0.033,-6.6,-29,-42.9,168.28,-1.45,-1.61,40327
-0.4717,0.3915,11.1354,0.3456,0.3375,9.7947,0.0794,-0.1943,-0.0953,-6.7,-28.9,-42.6,168.43,-1.88,-1.8,40429
1.4593,-0.164,10.5022,0.3449,0.4918,9.7882,-0.0354,-0.1833,-0.1539,-6.8,-29.1,-42.3,168.39,-2.87,-2.02,40532
0.7254,0.2729,7.671,0.1233,0.2344,9.8031,0.2224,-0.0855,-0.0073,-6.5,-29,-42,168.94,-1.37,-0.72,40634
-0.3735,0.5267,8.3665,0.1011,0.0704,9.8059,-0.0782,0.0538,-0.0257,-6.2,-28.7,-42.5,169.22,-0.85,-0.81,40736
-0.571,0.5602,9.7743,0.091,-0.106,9.8057,-0.226,-0.033,-0.0318,-5.5,-27.8,-42.9,170.83,0.35,-0.59,40837
0.0156,0.2538,10.0892,0.0477,-0.0901,9.8061,0.0501,0.1271,0.1991,-5.4,-27.4,-42.9,170.4,0.63,-0.47,40939
0.7278,0.8691,9.5457,2.00E-04,0.2674,9.803,0.3445,0.0208,0.314,-5.4,-27.2,-42.7,169.26,-0.86,0,41042
-1.0714,-1.3886,14.3089,0.2065,0.0482,9.8044,-0.5412,-0.4435,-0.1564,-5.8,-27.3,-42.7,168.86,-1.23,-1.16,41143
-0.0287,0.3855,8.181,0.3848,0.146,9.798,-0.0293,-0.452,0.1405,-6.5,-27.4,-42.7,169.55,-0.98,-1.54,41245
0.0359,0.3795,9.3194,0.5202,-4.00E-04,9.7928,0.0134,-0.1503,0.0098,-7.7,-27.1,-42.8,167.75,0.05,-2.82,41348
-0.2562,0.9912,8.6802,0.4069,0.0956,9.7977,0.0086,0.1442,-0.1784,-8.5,-26.8,-43,167.28,-0.34,-2.6,41449
-0.6476,-0.5148,12.0201,0.3042,0.1074,9.8013,-0.0073,0.0648,-0.2553,-8.4,-26.6,-43,165.9,-0.63,-1.78,41551
1.0175,0.5842,9.147,0.1617,0.4286,9.7959,0.193,0.0806,-0.0721,-7.9,-26.9,-43,164.22,-1.95,-1.05,41654
0.3831,0.3412,8.266,0.0983,0.1394,9.8052,0.1796,-0.1173,-0.0672,-6.9,-27.2,-42.9,166.02,-0.81,-0.57,41755
-0.4501,-0.0563,10.398,0.2045,0.0991,9.804,-0.2541,-0.0489,-0.1857,-6.3,-27.4,-43.2,168.88,-0.99,-1.11,41857
-0.7063,0.7314,8.5497,0.0917,0.1274,9.8054,-0.0782,0.1625,-0.0134,-5.8,-27.3,-43.6,168.45,-0.87,-0.81,41959
-0.1927,0.8487,9.1985,0.0299,0.1177,9.8059,-0.1075,0.0525,0.1698,-5.6,-27.1,-43.6,167.53,-0.77,-0.21,42062
0.1161,0.4836,10.4232,0.0202,0.1467,9.8055,0.1234,-0.0012,0.2993,-5.4,-26.9,-43.9,169.44,-0.86,-0.12,42163
0.7183,-1.0211,12.1518,0.1785,0.1418,9.804,-0.54,-0.3396,0.1356,-5.6,-26.9,-44,167.4,-1.64,-0.32,42265
0.0634,0.2849,8.3558,0.3472,0.1141,9.7998,-0.0855,-0.2896,0.1356,-6.5,-26.9,-44,169.54,-0.63,-1.44,42367
0.0156,0.0048,8.9268,0.41,-0.038,9.798,-0.1686,-0.0244,0.0086,-7.2,-26.9,-44,168.95,0.06,-2.23,42469
-0.4118,0.7817,8.1451,0.3982,0.0475,9.7984,0.1979,0.0599,-0.0012,-8,-26.7,-44.1,166.95,-0.28,-2.33,42571
-0.0874,0.0814,11.4958,0.4185,0.137,9.7968,0.0122,-0.1918,-0.1576,-8.3,-26.8,-43.9,166.95,-0.8,-2.45,42674
0.4681,0.2789,9.6989,0.4166,0.2336,9.795,-0.1527,-0.1845,-0.1808,-8.4,-27,-43.7,167.17,-1.1,-2.66,42776
0.1484,-0.2586,9.6714,0.3212,-0.1408,9.8004,-0.5534,0.3946,-0.3983,-8,-27.2,-43.7,167.23,0.41,-2.35,42878
0.2239,-0.419,10.0916,0.3981,-0.2611,9.7951,-0.3641,0.0452,-0.2016,-7.7,-27.2,-44.1,167.3,0.88,-2.29,42979
-0.2981,0.5758,8.6347,0.356,-0.3158,9.7951,-0.0929,0.0476,-0.1014,-7,-26.7,-44.8,169.42,1.69,-2.17,43082
-0.1844,0.2741,10.1023,0.3432,-0.2688,9.797,0.0733,-0.0183,0.0024,-6.7,-26.4,-45.5,168.74,1.57,-2.01,43183
-0.1125,0.0527,10.7727,0.1896,-0.1081,9.8042,0.4129,0.1161,0.3054,-6.4,-26.2,-45.5,169.7,1.24,-1.4,43285
0.6608,-0.3364,10.2963,0.1957,0.1555,9.8035,-0.2957,-0.0709,0.1613,-6.3,-26.9,-45,168.71,-1.18,-1.01,43387
0.1544,0.2957,8.6084,0.1993,0.0698,9.8044,0.0599,0.0476,0.2712,-6.7,-27.5,-44.2,167.11,-0.41,-1.16,43489
0.2993,-0.1329,8.2396,0.5032,0.0554,9.7936,-0.0806,-0.0501,0.0733,-7.4,-27.8,-43.8,170.13,-0.51,-2.85,43591
-0.1472,0.8751,7.9404,0.4844,0.0221,9.7947,0.1674,0.0122,0.0244,-8.5,-27.4,-43.7,167.8,-0.13,-2.83,43693
-0.012,0.8009,9.323,0.4388,0.1088,9.7962,-0.0367,-0.1124,-0.1955,-9,-27.2,-43.7,165.19,-0.54,-2.56,43795
0.4525,0.1808,9.9719,0.4061,0.1152,9.7976,0.044,0.1772,-0.1674,-9,-27.4,-43.4,164.77,-0.67,-2.37,43898
0.1413,-1.2354,12.6378,0.2844,-0.2544,9.7992,-0.6597,0.292,-0.3934,-8.6,-27.5,-43.2,164.84,-0.46,-2.36,44000
0.4513,-0.4537,9.7648,0.3552,-0.2336,9.7974,-0.3005,-0.0024,-0.0782,-8,-27,-43.3,166.66,0.99,-1.89,44101
0.3627,0.6033,7.1994,0.3588,-0.3097,9.7952,0.0086,0.0061,0.0171,-7.7,-26.5,-43.5,166.83,1.75,-2.14,44203
0.2933,0.4094,9.7264,0.3434,-0.4044,9.7923,-0.0452,0.044,0.0147,-7.5,-26,-43.8,169.12,2.35,-2.15,44305
-0.091,0.0539,10.671,0.1785,-0.3081,9.8002,0.226,0.1417,0.204,-7.4,-25.7,-44.1,167.85,2.12,-1.37,44407
1.4293,0.2897,9.329,0.1309,0.0159,9.8058,0.452,0.0953,0.3604,-7.1,-25.8,-44,166.11,-0.09,-0.76,44509
-0.6608,-0.085,8.57,0.1829,-0.2313,9.8022,-0.1576,0.325,0.1161,-7.1,-26.2,-43.8,167.26,1.47,-1.13,44612
0.0479,0.2095,9.001,0.4286,-0.1681,9.7958,0.0244,-0.1136,0.1503,-7.5,-26.4,-43.4,168.76,1.01,-2.24,44713
-0.413,0.6572,9.2093,0.4539,-0.1681,9.7947,0.1368,0.1197,0.0611,-8.2,-26.2,-43.3,167.35,0.98,-2.65,44816
-0.261,0.8356,9.6965,0.3246,-0.0513,9.8011,0.0342,0.0929,-0.0293,-8.5,-26.2,-43.3,166.35,0.39,-2.14,44917
0.4357,-0.0634,10.2975,0.3234,0.0587,9.8011,0.2676,0.1796,-0.0806,-8.5,-26.4,-43.1,165.67,-0.34,-1.89,45020
1.3252,-0.6141,10.9942,0.2765,-0.1638,9.8014,-0.7563,0.1552,-0.3567,-8.2,-26.8,-42.9,165.28,-0.98,-1.46,45121
1.2354,0.1353,8.0481,0.1873,-0.2608,9.8014,0.1283,0.0183,0.0452,-7.4,-26.6,-43,167.42,1.74,-0.91,45223
0.0227,-0.0479,8.8346,0.0644,-0.4341,9.7968,-0.088,0.2663,-0.2517,-6.9,-26.2,-42.9,167.03,2.38,-0.8,45325
-0.2705,0.6069,8.6036,-0.0097,-0.4141,9.7979,-0.055,0.2187,-0.1478,-6,-25.1,-43.3,167.29,2.42,0.06,45427
-0.7961,-0.1987,10.9978,-0.2166,-0.3839,9.7967,0.2346,-0.1063,0.2419,-5,-24.6,-43.1,167.57,2.52,1.23,45530
0.0838,0.3795,9.177,-0.1398,-0.0177,9.8056,0.5461,-0.0098,0.3482,-4.6,-24.8,-42.9,167.68,0.94,0.82,45631
-0.6716,0.0024,9.4152,-0.0509,-0.1162,9.8058,0.1136,-0.0049,0.1881,-4.5,-25.4,-42.5,170.61,0.68,0.3,45733
0.0862,0.3603,9.2177,0.1258,-0.0188,9.8058,-0.1161,0.0122,-0.0098,-4.9,-25.9,-42.2,169.44,0.08,-0.19,45836
-0.5926,0.6823,8.5569,0.1216,-0.002,9.8059,0.1051,-0.0257,0.0159,-5.5,-26.1,-41.8,170.29,0.12,-0.73,45938
-0.413,1.069,8.5234,-0.0107,0.1543,9.8054,0.1686,0.1002,-0.0342,-5.7,-26.2,-41.5,167.11,-0.49,-0.18,46040
-0.3065,0.1592,11.6562,0.0664,0.3038,9.8017,0.1747,0.0305,-0.2566,-5.5,-26.8,-41.2,169.25,-1.44,-0.1,46142
0.8655,0.5183,9.5433,0.0238,0.4979,9.794,0.2578,-0.0672,-0.1881,-5,-27.6,-41.3,169.13,-2.63,0.01,46243
0.4022,0.5866,8.0206,-0.2103,0.3069,9.7996,0.2321,0.0061,-0.0709,-4.2,-28.5,-41.5,169.62,-1.49,1.3,46346
-0.5411,0.1987,9.6893,-0.2429,0.0747,9.8034,-0.0916,0.0403,0.0183,-3.5,-28.7,-41.6,172.22,-1.45,1.11,46447
-0.5004,0.7853,8.922,-0.3008,-0.1335,9.8011,-0.3213,0.1014,0.0782,-2.7,-28,-42,171.57,0.49,1.64,46549
-0.6189,0.3747,9.8533,-0.227,-0.0896,9.8036,0.0037,-0.0464,0.1869,-2.6,-27.5,-42.4,171.73,0.62,1.35,46651
-0.5686,0.1951,10.9978,-0.151,0.1464,9.8044,0.3616,-0.0183,0.3348,-3,-27.2,-42.5,172.14,-0.22,0.96,46753
-1.2534,-0.9816,11.7472,-0.0747,0.1472,9.8053,0.2162,-0.1637,0.3286,-3.7,-27.6,-42.3,170.78,-1.13,0.56,46855
-0.5578,0.2334,9.1387,0.0868,0.2971,9.8018,0.0696,-0.1772,0.2053,-5,-28.1,-42.3,170.17,-1.74,-0.51,46957
-0.1305,0.7518,9.256,0.2282,0.1536,9.8028,-0.0782,-0.0953,0.1405,-6.1,-28.2,-42.6,169.36,-1,-1.17,47062
-0.1233,1.1325,8.4072,0.2054,0.2589,9.8011,0.1344,0.0586,0.0098,-6.9,-28.2,-42.9,167.41,-1.26,-1.28,47161
-0.5926,0.2897,11.0325,0.271,0.357,9.7964,0.0305,-0.1332,-0.16,-7.5,-28.1,-43.4,167.19,-1.87,-1.27,47263
0.0383,-0.1089,10.6171,0.2615,0.4542,9.7926,-0.0745,0.1808,-0.2016,-7.8,-28.4,-43.5,165.23,-2.65,-1.53,47366
0.152,0.8823,9.9527,0.085,0.3771,9.799,0.1087,-0.0037,-0.0049,-7.7,-28.6,-43.5,164.79,-1.94,-0.69,47468
-0.2119,0.4477,9.6654,0.1187,0.1853,9.8042,0.1026,0.1503,-0.0586,-7,-28.8,-43.1,166.93,-1.44,-0.69,47570
-0.4896,0.9732,8.2863,0.0266,0.1942,9.8047,-0.0354,0.0171,-0.1124,-6.2,-28.5,-43.4,167.77,-1.13,-0.16,47671
-0.1736,1.0307,9.7983,0.0166,0.2856,9.8025,0.1002,-0.0305,0.0562,-5.8,-28.5,-43.6,167.5,-1.43,-0.05,47773
-0.3244,1.3958,11.4084,0.1014,0.6286,9.786,0.2712,-0.121,0.1356,-5.6,-28.8,-43.7,168.02,-3.68,-0.59,47875
-0.5758,0.0742,11.2719,0.1551,0.7495,9.7767,-0.044,0.033,-0.0464,-6.1,-29.5,-43.4,168.28,-4.38,-0.91,47977
-0.0431,1.1672,9.4116,0.2672,0.6476,9.7816,0.0037,-0.1869,-0.055,-6.2,-29.9,-43.1,169.42,-3.74,-1.24,48079
0.401,1.3216,7.7931,0.2243,0.5424,9.7891,0.1026,-0.0684,-0.1038,-6.5,-30.2,-43.1,169.99,-3.2,-1.52,48181
0.018,1.3815,8.1762,0.2937,0.658,9.7801,0.1405,-0.055,-0.0171,-6.4,-30,-43.2,170.2,-3.61,-1.73,48284
0.4286,1.1121,9.7755,0.2519,0.7844,9.772,0.1759,0.0195,-0.1845,-6.5,-30.1,-43.5,169.71,-4.25,-1.53,48386
1.3695,0.8847,10.4974,0.3089,1.0665,9.7436,-0.0024,-0.2602,-0.3482,-6.1,-30.8,-43.1,169.45,-5.94,-1.45,48487
0.2574,0.8284,11.0899,0.1466,0.8262,9.7707,-0.2981,0.3372,-0.1772,-5.6,-31.3,-43,169.26,-5.03,-1.14,48589
0.4908,1.5287,8.2648,0.1463,0.7064,9.7801,0.0611,0.077,0.0391,-4.8,-31.4,-42.8,171.45,-3.89,-1.05,48691
-0.8068,1.3838,8.5162,0.1142,0.7039,9.7807,0.0428,-0.0501,-0.1784,-4.1,-31.1,-43.4,172.84,-4.12,-0.67,48794
-0.5004,1.5263,9.7624,0.0113,0.7496,9.7779,0.1991,0.1417,0.0159,-3.7,-30.9,-43.6,172.28,-4.26,-0.33,48895
-0.0431,1.318,12.3194,0.0148,1.0044,9.7551,0.2236,-0.121,0.1918,-3,-31.2,-43.7,173.28,-5.58,0.17,48998
-0.2119,0.595,9.8976,-0.0594,1.0821,9.7466,0.1038,0.0428,0.0867,-2.9,-31.7,-43.3,173.47,-6.15,0.15,49099
-0.018,0.9912,9.973,0.1186,1.0425,9.7504,-0.1991,-0.0562,-0.033,-3,-32.2,-43,174.24,-6.2,-0.35,49201
-0.565,1.3934,8.3342,0.0337,0.8995,9.7652,-0.033,0.1625,0.0305,-3.4,-32.5,-42.6,174.31,-5.47,-0.31,49304
-0.2765,1.9142,7.8207,0.0191,1.0759,9.7474,0.3018,-0.1197,0.0367,-3.5,-32.6,-42.6,174,-5.24,0.06,49405
0.0826,1.5694,11.4132,0.0871,1.1614,9.7373,0.1552,0.1038,-0.0733,-3.4,-32.9,-42.7,174.78,-6.58,-0.61,49507
0.079,0.1221,12.4187,0.0313,1.0328,9.7521,-0.43,-0.0134,-0.2724,-3.3,-33.2,-43,174.49,-6.96,-0.46,49609
0.6177,0.9457,7.9655,-0.0905,0.9846,9.7567,-0.0501,0.0122,-0.0403,-2.8,-33.2,-43,173.2,-5.76,0.53,49712
-0.3627,1.4593,7.2305,-0.0486,0.7826,9.7753,0.0098,0.0611,0.0611,-2.3,-32.6,-43.2,175.89,-4.53,0.16,49813
-0.2215,1.579,8.4072,0.0524,0.7656,9.7766,-0.099,-0.0794,0.1124,-2.1,-32.3,-43.4,176.12,-4.43,-0.08,49915
-0.395,0.9026,11.564,0.0283,0.7735,9.7761,0.1381,0.1478,0.2199,-2.5,-31.9,-43.4,176.24,-4.52,-0.17,50017
1.0092,-0.3986,11.6203,0.135,0.7566,9.7765,-0.4227,-0.2651,0.033,-2.8,-32,-43.1,174.45,-5.12,-0.37,50119
-0.7183,1.0235,7.7153,-0.0708,0.7817,9.7752,0.0305,-0.0208,-0.0171,-3.3,-32,-42.9,173.37,-4.57,0.41,50222
-0.7961,0.5854,8.8071,-0.0282,0.7068,9.7811,-0.1588,-0.0672,-0.0745,-3.4,-32.1,-43.2,173.62,-4.38,0.27,50323
-0.8009,1.1516,9.3338,0.0804,0.6938,9.7817,-0.0049,-0.1368,0.0354,-3.5,-32,-44,174.4,-4.03,-0.23,50426
-0.2921,1.4664,10.0221,0.2154,0.7758,9.7735,0.0464,-0.1515,-0.0672,-3.8,-32,-43.8,173.55,-4.42,-1.01,50527
-0.2622,1.3156,10.0616,0.3045,0.8013,9.7691,-0.1417,-0.1429,-0.2529,-4.2,-32.2,-43.6,174.64,-4.68,-1.75,50629
0.243,-0.3711,12.0464,0.3883,0.3438,9.7929,-0.8063,-0.1442,-0.5449,-4.4,-32,-43.5,175.7,-2.01,-2.27,50731
0.2143,0.4549,8.4994,0.337,0.4002,9.7927,-0.0757,0.011,-0.215,-4.1,-31.6,-43.9,175.14,-2.21,-1.85,50834
0.2191,1.0008,8.91,0.3522,0.3534,9.794,0.0232,-0.0012,-0.0086,-3.2,-30.9,-44.6,177.06,-2.09,-1.9,50935
0.4178,1.2677,8.3055,0.3607,0.4598,9.7892,0.1368,-0.0464,-0.066,-2.8,-30.8,-44.5,177.1,-2.52,-1.99,51037
-0.3819,0.9002,10.7799,0.308,0.6124,9.7827,0.088,-0.0929,-0.0073,-2.4,-31.2,-44,178.61,-3.49,-1.71,51140
1.0882,1.2809,8.5329,0.1999,0.7923,9.7726,-0.044,-0.1674,0.2053,-2.3,-31.6,-43.6,177.84,-4.21,-1.2,51241
-0.2191,0.431,10.2963,0.2508,0.6998,9.7784,-0.0318,0.0171,0.1552,-2.4,-32.2,-42.9,178.22,-4.09,-1.47,51343
0.0527,0.7626,8.3258,0.2336,0.7722,9.7734,-0.0782,0.1723,-0.011,-2.6,-32.4,-42.5,176.55,-4.69,-1.75,51445
-0.0431,1.4162,8.5138,0.2237,0.7184,9.7777,-0.0489,-0.0086,-0.1662,-2.9,-32.5,-42.5,175.91,-4.24,-1.28,51547
-0.328,1.3012,9.4332,0.1925,0.7235,9.778,0.0293,0.0134,-0.1356,-2.8,-32.6,-42.5,175.91,-4.1,-1.17,51649
-0.2705,1.2713,9.7049,0.1977,0.8912,9.7641,0.2382,0.1087,-0.1368,-2.4,-32.7,-42.4,177.99,-4.82,-1.32,51751
-0.0467,0.5171,10.7691,0.1786,0.6978,9.7802,-0.0721,0.0623,-0.1002,-2.1,-32.8,-42,177.64,-4.08,-1.05,51854
0.5686,0.8978,8.9735,0.2479,0.7135,9.7775,-0.2517,0.0293,-0.1307,-1.8,-32.9,-42,178.24,-4.64,-1.49,51956
-0.4992,1.2043,8.4467,0.2284,0.563,9.7878,-0.171,0.033,-0.055,-1.4,-32.6,-42.2,179.96,-3.29,-1.34,52058
-0.1305,1.2905,9.2009,0.1757,0.5883,9.7874,-0.0562,0.121,0.088,-1.2,-32.5,-42.4,179.85,-3.5,-1.26,52159
-0.4908,1.1624,10.7248,0.0323,0.6897,9.7823,0.237,0.1417,0.3519,-1.3,-32.3,-42.8,178.79,-3.59,-0.51,52261
-0.0263,0.9278,11.8058,-0.0408,0.7794,9.7755,0.0513,0.0611,0.2981,-1.4,-32.6,-42.5,177.63,-4.85,0.29,52363
-0.6057,1.1109,9.6438,-0.0692,0.761,9.7768,0.1063,-0.1747,0.1491,-1.7,-32.7,-42.6,175.27,-4.27,0.61,52465
-0.3843,0.7566,9.5864,0.044,0.7154,9.7804,-0.0782,0.0281,-0.0953,-2.2,-33.1,-42,176.66,-4.49,-0.37,52567
-0.5926,1.3479,8.096,0.1106,0.8009,9.7733,0.0562,-0.0513,0.022,-2.6,-33,-42.2,174.86,-4.34,-0.45,52670
-0.3891,0.899,10.8601,0.1925,0.7703,9.7745,-0.0965,-0.0709,-0.0489,-3.1,-33,-42.1,175.65,-4.67,-1.03,52771
1.4437,1.3527,9.4846,0.2132,0.9178,9.7613,0.248,-0.2358,-0.1625,-3.4,-33.1,-42.2,175.88,-5.37,-1.25,52873
-0.3292,-0.0431,12.2308,0.1872,0.6016,9.7864,0.0562,-0.1613,-0.2993,-3.4,-33.1,-42.1,175.92,-3.97,-1.17,52976
-0.0934,0.8631,9.0633,0.2492,0.4903,9.7912,-0.2395,0.0183,-0.1833,-2.7,-32.8,-42.5,176.42,-3.52,-1.5,53077
-0.1389,1.2474,9.1351,0.3438,0.371,9.7936,0.0892,-0.0709,-0.0208,-2.3,-32.2,-42.8,178.88,-2.03,-1.87,53180
-0.0515,0.8739,9.4523,0.3617,0.5796,9.7828,0.2395,0.1319,-0.0061,-2.1,-31.7,-43.3,179.54,-2.96,-2.35,53281
0.0551,0.5459,11.157,0.3568,0.8332,9.7647,0.3225,-0.0574,0.1087,-2.3,-31.8,-43.2,179.11,-4.26,-2.07,53383
-0.5806,-0.1161,10.5381,0.3351,0.7433,9.7727,-0.4398,0.0049,-0.0892,-2.6,-32.5,-43,176.95,-4.35,-1.96,53486
0.431,0.9708,8.4467,0.5022,0.5329,9.7793,-0.2541,-0.1197,-0.022,-2.8,-32.7,-42.9,177.62,-3.48,-2.32,53587
0.0491,0.8056,8.764,0.4658,0.2931,9.7912,-0.2798,0.0819,-0.0648,-3.3,-32.2,-42.9,178.56,-1.8,-2.96,53689
-0.6656,0.7314,9.6295,0.4198,0.2677,9.794,-0.0586,-0.0122,-0.0208,-3.5,-31.4,-43.3,177.75,-1.61,-2.43,53791
-0.419,0.2502,11.9016,0.5525,0.4231,9.7819,0.3433,-0.1723,0.2932,-3.5,-31.1,-43.5,178.2,-1.86,-2.76,53893
0.9888,0.7111,9.7803,0.7527,0.8415,9.7414,0.6976,-0.2028,0.3592,-3.9,-31.4,-43.1,177.42,-4.66,-3.67,53996
-0.1353,0.8799,8.3546,0.7286,0.6572,9.7574,0.1173,0.0257,0.2859,-4.7,-32,-42.6,176.56,-3.73,-4.32,54097
0.3484,0.9577,8.1044,0.7194,0.5279,9.766,0.0819,0.1478,0.672,-5.9,-32.3,-42,174.7,-3.06,-4.41,54200
-0.164,1.1408,8.6491,0.7311,0.5167,9.7657,0.2224,-0.237,0.8112,-6.8,-31.9,-42,172.27,-2.9,-4.01,54301
-0.3651,0.5399,10.7739,0.8914,0.5387,9.7512,0.0415,-0.1356,0.9285,-8.9,-31.3,-41.8,169.82,-3.15,-5.22,54403
-0.3196,0.3208,9.8593,1.0757,0.8145,9.7134,0.4533,0.4728,1.1643,-10.9,-31.1,-41.4,167.51,-4.12,-6.65,54506
-0.589,0.0192,9.8557,0.7979,0.8081,9.7407,0.0733,0.3372,1.135,-14,-30.7,-40.8,159.4,-4.81,-5.12,54607
-1.2689,-0.2933,10.4387,0.4967,0.4746,9.7826,-0.3824,0.3018,0.9737,-15.9,-30,-40.5,154.11,-4.51,-4.31,54709
-0.7195,0.097,8.7388,-0.0198,0.3037,9.8019,-0.044,0.4129,1.2193,-17.6,-27.8,-40.8,146.59,-1.9,-0.62,54811
0.9242,0.2969,9.317,-0.4841,0.2501,9.7915,-0.0293,0.2651,1.0055,-18.5,-25.5,-41.6,140.81,-1.78,1.82,54913
1.5646,0.4609,10.3226,-0.4011,0.2689,9.7948,0.099,-0.1344,0.2211,-19.1,-23.1,-42.6,136.47,-1.57,2.35,55016
-0.7219,-1.0558,13.5823,-0.2405,-0.0544,9.8035,-0.6793,-0.044,-0.2761,-19.6,-21.9,-42.9,135.9,-0.35,1.43,55117
-0.9457,-0.1736,8.3462,-0.158,-0.0078,9.8054,-0.4447,-0.0244,-0.2309,-20.2,-20.8,-43.2,135.12,-0.12,1.11,55219
-0.6716,1.0582,7.841,-0.1874,-0.1947,9.8029,0.1564,0.1943,0.2114,-20.6,-19.8,-43.3,134.25,1.38,0.78,55322
-0.6452,0.7207,9.754,-0.1987,-0.0592,9.8045,0.1161,-0.0929,0.1295,-20.6,-19.5,-43.3,131.73,0.64,1.12,55423
-1.1588,0.1879,11.9375,-0.2817,0.326,9.7972,0.5852,-0.0257,0.4618,-20.6,-19.4,-43.1,129.57,-0.84,1.65,55525
-0.8978,-0.6021,13.3872,-0.2338,0.3285,9.7984,-0.4618,0.2505,0.3128,-20.9,-19.8,-42.8,130.14,-1.92,1.37,55628
-0.559,0.571,8.3653,-0.215,0.2162,9.8019,0.0929,-0.2346,0.4203,-21.2,-19.6,-42.8,130.69,-1.28,1.55,55730
-0.4776,0.65,9.1159,-0.1703,0.0724,9.8049,0.0195,-0.1356,0.2407,-21.9,-18.8,-42.5,129.44,-0.42,1,55831
-0.8056,0.7889,8.7831,-0.2496,0.2648,9.7999,0.1747,0.0171,0.1649,-22.6,-17.6,-42.5,125.04,-1.55,1.46,55933
-0.7123,-0.0192,10.5728,-0.272,0.5014,9.79,0.314,0.0525,0.1955,-22.8,-17.5,-42.3,122.37,-2.33,1.57,56036
-1.7071,-1.2677,13.2531,-0.2784,0.3384,9.7969,-0.452,-0.1185,-0.0819,-22.7,-17.9,-42.6,122.67,-3.5,1.32,56138
0.6859,1.2091,7.3825,-0.3303,0.0402,9.801,-0.044,-0.2309,0.0782,-22.5,-17.7,-42.9,126.81,-0.33,2.33,56239
-0.0802,1.0714,8.3582,-0.2914,-0.2989,9.7978,0.0941,0.0843,0.0134,-22.6,-16.7,-43.9,127,1.75,1.7,56341
0.0778,1.1277,8.1439,-0.3393,-0.0841,9.8004,0.2517,0.044,0.055,-22.6,-15.8,-43.8,124.89,1.47,2,56444
-0.146,0.158,11.1055,-0.4437,0.1587,9.7953,0.3763,0.1381,0.0354,-22.4,-15.5,-43.3,121.88,-0.22,2.5,56545
0.9864,-0.3855,9.9407,-0.3863,0.4042,9.7907,-0.4239,-0.0757,-0.3067,-22.2,-16.1,-42.8,120.79,-2.42,2.49,56648
0.7685,0.34,7.8769,-0.5529,0.3893,9.7833,0.4618,0.2162,-0.2004,-21.8,-17.2,-42.9,122.15,-2.27,3.23,56749
0.3053,0.3651,8.7293,-0.7721,0.2802,9.7722,-0.1918,0.4374,-1.3134,-20.9,-18.5,-42.8,124.66,-1.64,4.52,56852
-0.5076,0.8882,7.6303,-0.974,0.4658,9.747,0.0574,0.4166,-1.3011,-19.5,-19.7,-43.1,128.51,-2.55,5.19,56953
-0.571,0.255,9.5457,-1.2213,0.5076,9.7171,0.1405,-0.0745,-1.4844,-14.9,-23.4,-43.7,135.85,-2.84,7.06,57056
-0.0539,0.1604,8.1271,-1.3413,0.5153,9.7008,0.4459,0.3409,-1.1472,-12,-25.9,-42.7,143.91,-2.6,7.59,57157
-0.2119,0.7398,6.5697,-1.437,-0.0806,9.7005,0.3067,0.3079,-0.7844,-9.3,-26.8,-43,150.92,0.47,8.43,57259
0.2789,0.9026,10.3621,-1.0362,-0.2683,9.7481,-0.0122,0.1955,-0.8369,-7.6,-27.6,-43.4,156.84,0.8,5.69,57362
-0.826,1.3587,8.2803,-0.9386,-0.2136,9.7593,0.0269,-0.1429,-0.661,-6.1,-27.7,-43.8,160.37,0.94,5.57,57463
-1.0726,0.5315,10.3106,-0.8892,-0.205,9.7641,0.055,0.0134,-0.4276,-4.4,-27.5,-44.4,164.05,1.2,5.2,57565
-0.8763,0.7302,12.3828,-0.9052,-0.2047,9.7626,0.3457,0.0941,0.0819,-3.4,-27.3,-44.5,166.5,1.55,4.92,57667
-0.7925,0.103,11.0947,-0.7652,-0.2935,9.7723,-0.3323,-0.0977,0.0342,-2.7,-27.3,-44.2,166.8,1.31,4.66,57769
-0.2705,0.3148,9.068,-0.4502,-0.1283,9.7955,0.0648,-0.1649,0.1258,-3.1,-27.3,-44.1,169.69,0.75,2.63,57872
-0.243,0.8739,8.8286,-0.4204,0.018,9.7976,0.3433,-0.1466,0.0757,-3.6,-27.4,-44.1,167.51,0.49,2.69,57973
-0.7027,0.4286,9.8581,-0.4753,0.1992,9.7931,0.2871,-0.1881,-0.0525,-4.2,-27.9,-43.7,167.26,-1.16,2.78,58075
-0.8954,0.164,10.2699,-0.3628,0.4176,9.791,0.2896,0.0024,-0.088,-4.3,-28.5,-43.5,168.09,-1.96,2.13,58178
-0.4525,-0.1113,11.0995,-0.373,0.3044,9.7948,-0.3567,0.2016,-0.204,-4.1,-29.5,-42.8,168.82,-2.4,1.83,58279
-0.146,0.6201,7.3897,-0.3821,0.2509,9.796,-0.441,-0.1222,-0.1747,-4.1,-29.6,-42.8,168.82,-1.83,2.21,58382
-0.1161,1.0211,7.8853,-0.2724,0.0194,9.8028,-0.0208,0.0061,-0.1051,-3.9,-29.2,-42.9,169.82,-0.11,1.59,58483
0.3136,1.3216,8.8322,-0.2562,0.1274,9.8025,0.121,-0.2272,-0.0721,-3.6,-28.8,-43.3,168.93,-0.38,2.16,58586
-0.5267,0.1353,11.9578,-0.1715,0.1955,9.8032,0.3176,-0.1881,0.0257,-3.5,-28.6,-43.7,171.99,-0.83,1.29,58687
-0.2897,0.4334,9.2105,-0.223,0.3912,9.7963,0.121,0.1808,0.0977,-3.5,-29,-43.3,172.06,-2.31,1.07,58789
-0.7123,0.3136,8.5629,-0.2045,0.224,9.802,-0.0244,-0.2248,0.0709,-3.5,-29.3,-42.8,171.45,-1.4,1.6,58891
-1.002,0.1341,8.9112,-0.1105,0.0193,9.806,-0.0061,0.0257,-0.0709,-3.7,-29.3,-42.8,171.27,-0.14,0.59,58993
-0.1736,1.0343,8.0278,-0.1803,0.1251,9.8042,0.1869,-0.055,-0.0501,-3.9,-28.9,-43,170.44,-0.73,1.05,59096
-0.5722,0.899,9.0106,-0.1974,0.2442,9.8016,0.0648,0.0684,-0.0806,-3.9,-29,-43.2,170.3,-1.21,1.07,59197
0.0515,0.8619,9.7444,-0.1358,0.2951,9.8013,0.3189,0.0721,0.033,-3.8,-29.4,-43.3,170.58,-1.72,0.79,59300
-0.091,-0.0611,11.327,-0.0231,0.2463,9.8035,-0.3726,0.1466,-0.3567,-3.7,-29.8,-43,171.88,-2.78,-0.03,59401
-0.7171,0.243,8.333,-0.0134,0.2545,9.8033,0.1246,-0.0318,-0.0476,-3.6,-29.9,-43.1,171.75,-1.38,0.26,59503
-0.4429,0.7697,8.6574,0.0878,0.1998,9.8042,0.1271,-0.0867,0.3274,-3.6,-29.8,-42.9,172.76,-0.97,-0.38,59605
0.1808,1.1552,8.4372,0.1812,0.2274,9.8023,0.0599,-0.3482,0.3201,-3.9,-29.6,-43,173.22,-1.26,-0.73,59708
-0.1209,0.5088,11.9938,0.2913,0.1975,9.8003,0.3115,-0.1405,0.2993,-5.1,-29.5,-42.5,172.36,-1.19,-1.67,59809
-0.4334,-0.4705,13.72,0.3582,0.3371,9.7943,-0.1405,-0.1136,0.204,-6.4,-29.6,-42.7,171.17,-1.97,-2.09,59912
0.261,1.0654,7.6938,0.3284,0.096,9.8007,-0.0098,-0.0428,0.1588,-7.1,-29.3,-42.8,169.34,-0.46,-2.14,60013
0.012,0.2945,8.7293,0.3531,-0.0957,9.7998,-0.0171,0.0794,0.0086,-7.9,-28.7,-43.4,167.91,0.47,-2.28,60116
0.2682,0.8847,8.1977,0.3072,0.0543,9.8017,0.3103,0.0415,0.1258,-8.2,-28.1,-43.4,166.84,0.25,-1.87,60217
-0.2933,-0.1161,10.8374,0.3054,0.2745,9.798,0.2175,-0.0134,-0.1588,-8.3,-28.2,-43,166.1,-1.17,-1.71,60320
0.9014,0.6428,8.843,0.3344,0.3846,9.7934,-0.5938,-0.0476,-0.4679,-8.2,-28.8,-42.6,166.44,-2.55,-1.96,60422
-0.1784,-0.31,10.1574,0.1299,-0.0987,9.8053,-0.3897,0.5205,-0.2981,-7.7,-29,-42.6,166.67,0.96,-1.27,60523
-0.5088,0.1508,9.2799,0.15,-0.1647,9.8041,-0.1539,0.0733,-0.0354,-6.8,-28.8,-43.3,167.96,0.96,-0.88,60626
0.1736,1.2234,8.1235,0.0909,-0.1085,9.8056,0.0586,0.0257,0.0061,-6.2,-28.2,-43.9,169.14,0.73,-0.68,60727
-0.2322,0.2813,10.969,0.1069,-0.1288,9.8052,-0.0745,-0.0562,-0.1161,-5.9,-28,-44.4,169.1,0.54,-0.68,60829
0.1915,0.9481,9.2213,-0.0053,0.1172,9.8059,0.5229,0.1319,0.2651,-5.7,-28.1,-44.3,167.63,-0.68,0.03,60932
-1.2007,-0.5267,11.5532,0.0997,0.1094,9.8055,0.0305,0.193,0.0965,-5.7,-28.4,-43.8,169.03,-0.62,-0.87,61033
0.1484,0.1448,8.7724,0.2836,0.1214,9.8018,-0.2871,0.1955,-0.0281,-6,-28.8,-43.5,170.52,-0.71,-1.66,61135
-0.8404,0.419,9.5481,0.1595,-0.0564,9.8052,-0.0635,0.022,0.0513,-6.4,-28.7,-43.6,169.96,0.22,-1.08,61238
-0.5004,0.65,10.744,0.078,0.1437,9.8053,-0.0134,0.0342,-0.0098,-6.7,-28.6,-43.6,166.8,-0.84,-0.46,61340
-0.2286,0.2478,10.3765,0.0269,0.4014,9.7984,0.3115,-0.0501,-0.1136,-6.6,-28.5,-43.4,165.56,-1.69,-0.16,61441
0.316,0.0168,10.8146,0.0197,0.4666,9.7955,-0.0623,0.1026,-0.1796,-6.3,-29.4,-42.9,167.61,-2.73,-0.12,61544
0.4549,0.6524,8.175,-0.0829,0.1616,9.805,-0.055,0.077,-0.1869,-5.8,-29.7,-43.2,167.96,-1.21,0.27,61645
-0.2753,0.9517,8.0493,-0.1514,-0.0698,9.8052,-0.0574,0.0354,0.0672,-4.9,-29.5,-43.5,169.33,0.27,0.67,61747
0.0934,1.1887,8.7137,-0.1298,-0.0482,9.8057,0.0843,-0.0464,0.1454,-4.4,-28.9,-44.1,170.92,0.53,0.91,61849
-0.5914,0.1963,11.552,-0.0597,0.1416,9.8054,0.171,0.0428,0.0867,-4.3,-28.6,-44,171.68,-0.35,0.27,61952
-0.4094,-0.316,12.8844,-0.0364,0.316,9.8015,-0.3665,-0.1271,-0.0171,-4.6,-29,-43.3,169.41,-1.85,0.21,62053
-0.5698,0.4046,8.6802,-0.0632,0.2196,9.804,0.1662,0.0843,0.1515,-4.8,-29.2,-43,169.34,-1.28,0.37,62156
-1.0415,0.1496,8.6119,0.0068,0.1333,9.8057,-0.2443,0.1564,-0.0195,-5,-29.4,-42.9,170.22,-1.07,-0.19,62257
-0.2502,1.0798,7.8769,0.0113,0.1939,9.8047,0.1674,0.0867,0.1967,-5.4,-29.1,-43,170.15,-0.92,-0.12,62359
-0.0012,0.5926,10.9571,-0.0343,0.2394,9.8037,0.1772,-0.2553,-0.0599,-5.7,-29,-43,167.59,-1.4,0.2,62461
0.4334,0.4944,10.1359,0.1408,0.3624,9.7989,0.0415,0.0147,-0.0794,-5.8,-29.2,-42.5,168.09,-2.15,-0.3,62564
-0.3196,-0.6464,11.9985,0.165,-0.0356,9.8052,-0.6158,0.1197,-0.2908,-5.9,-29.1,-42.5,169.73,-0.82,-1.16,62665
0.1736,0.1867,7.4005,0.1415,-0.2049,9.8035,-0.3836,0.088,0.0367,-5.8,-28.8,-42.7,170.09,0.8,-1.1,62768
-0.0443,0.668,8.9615,0.1111,-0.3213,9.8008,-0.0061,0,0.1478,-5.7,-28,-43.3,169.45,2.11,-0.66,62869
-0.1269,0.2502,10.8386,0.0054,-0.0454,9.8065,0.2272,0.0428,0.1026,-5.5,-27.1,-43.7,169.95,0.79,-0.14,62971
-0.0766,1.0139,9.2596,-0.1258,0.3711,9.7988,0.5828,0.0489,0.226,-5.5,-27.3,-43.9,168.34,-0.81,0.58,63073
-0.6764,0.3579,9.5014,-0.1803,0.1747,9.8034,-0.055,0.088,0.0867,-5.4,-28.1,-43.5,168.44,-1.81,0.6,63175
0.1808,0.4609,9.013,0.0573,0.1274,9.8057,-0.088,-0.4508,-0.0269,-5.4,-28.4,-43.5,169.02,-0.98,0.39,63278
-0.6428,0.6357,9.3948,0.0352,-0.0117,9.8066,0.0794,0.0183,0.066,-5.6,-28,-43.9,168.47,0.4,-0.29,63379
-0.4178,1.075,8.1594,-0.0326,0.1795,9.805,0.0757,0.0134,-0.0819,-5.7,-27.8,-44,167.45,-0.88,0.1,63481
-0.4034,0.3376,10.0137,0.021,0.2864,9.8024,0.0953,-0.0916,-0.1698,-5.7,-28,-44,167.54,-1.37,-0.06,63583
0.2897,-0.3663,11.1749,0.0755,0.1095,9.8057,-0.6426,0.193,-0.4093,-5.6,-28.2,-43.7,168.34,-1.61,-0.63,63685
0.0108,-0.0096,8.7568,0.0959,-0.0622,9.806,-0.2382,-0.1429,-0.1246,-5.2,-28,-44,170.44,0.18,-0.34,63788
0.3148,0.3843,8.8921,0.1107,-0.2578,9.8026,-0.2101,0.0611,0.1136,-4.9,-27.1,-44.4,170.91,1.51,-0.65,63890
0.146,0.9996,7.8602,0.0895,-0.2418,9.8033,0.2309,0.0721,0.2285,-4.8,-26.6,-44.5,170.7,1.41,-0.52,63991
-0.085,0.243,12.3301,0.0173,0.0188,9.8066,0.2688,0.0098,0.2578,-5.1,-26.4,-44.4,169.43,0.35,-0.13,64093
-0.0814,-0.0431,10.058,-0.1553,0.3928,9.7976,-0.4142,0.1014,0.2101,-5.2,-27,-43.9,167.84,-1.84,0.66,64196
-0.4776,0.4836,8.6586,-0.184,0.2501,9.8017,0.1124,-0.182,0.2859,-5.3,-27.7,-43.6,167.77,-1.46,1.08,64297
-0.4944,-0.0599,9.7264,0.0254,0.0846,9.8063,-0.1246,0.0354,-0.0342,-5.5,-28,-43.5,169.74,-1.04,-0.1,64399
-0.4836,0.814,8.6503,-0.0264,0.0643,9.8064,0.2126,0.1124,0.0415,-5.9,-27.6,-44,167.98,-0.22,-0.1,64501
-0.5387,0.7685,10.3465,-0.0433,0.1938,9.8046,0.0745,-0.0281,-0.0305,-5.9,-27.4,-43.9,166.59,-0.93,0.35,64604
-0.4705,0.3005,10.0197,-0.0319,0.3953,9.7986,0.2602,0.1698,-0.1527,-5.6,-27.7,-43.9,166.81,-2.31,0.19,64705
-0.4274,0.249,8.4707,-0.1286,0.4781,9.7941,-0.4972,0.0684,-0.2053,-5.3,-28.4,-43.6,168.71,-3.78,0,64808
-0.3831,0.1006,8.8992,-0.0703,0.1243,9.8056,-0.3299,-0.0342,-0.1845,-4.6,-28.8,-43.2,169.9,-1.23,0,64909
-0.1341,0.9206,8.5533,-0.2294,-0.1577,9.8027,-0.1979,0.1674,0.1649,-3.9,-28.2,-43.3,170.54,0.77,1.02,65012
0.0299,0.9697,8.6718,-0.1638,-0.0566,9.8051,0.0159,-0.0843,0.0428,-3.6,-27.7,-43.6,170.25,0.46,1.14,65114
-0.3077,0.8092,12.2547,-0.0632,0.0591,9.8063,0.3738,-0.121,0.1442,-3.8,-27.5,-43.9,170.9,-0.35,0.37,65215
0.2562,0.0622,11.716,-0.0382,0.1257,9.8058,-0.2101,-0.0513,0.0024,-4.1,-28,-43.6,170.92,-1.56,0.37,65318
-0.2478,0.2334,9.2117,0.0653,0.1028,9.8059,0.1161,-0.4569,-0.0012,-4.5,-28.3,-43.5,172.32,-0.6,-0.38,65419
-0.6536,-0.0551,9.3685,0.0997,-0.0547,9.806,-0.2224,0.1515,-0.033,-4.8,-28.4,-43.7,171.1,-0.28,-0.85,65521
-0.0838,0.583,7.6507,0.0461,-0.0014,9.8065,0.1295,-0.1234,0.0794,-5.1,-27.8,-44.1,170.84,0.88,-0.49,65623
-0.6524,0.255,10.058,-0.0301,0.1805,9.8049,0.1271,-0.0965,-0.1967,-5.2,-27.9,-44.1,169.21,-0.82,0.28,65725
0.589,0.3567,8.7592,-0.0735,0.5231,9.7924,-0.0086,-0.1539,-0.3384,-4.8,-28.6,-43.5,168.94,-2.31,0.44,65828
0.0467,0.5327,9.8354,-0.1209,0.2093,9.8037,0.1075,-0.1344,0.0037,-4,-29.5,-42.9,170.84,-1.22,0.71,65929
0.0275,0.7159,9.1614,-0.0759,0.0292,9.8063,-0.518,0.0513,-0.0574,-3.5,-29.6,-42.8,173.63,-0.17,0.44,66031
-0.316,0.6488,9.9479,-0.0923,-0.1213,9.8055,-0.0037,0.0281,0.1161,-3.3,-29.1,-43,173.34,0.47,0.57,66133
-0.2538,0.4262,9.7719,-0.1075,0.1289,9.8052,0.1576,0.0342,0.121,-3.5,-28.6,-43.4,173.04,-0.75,0.63,66236
-0.073,0.6189,10.6757,0.0059,0.4447,9.7966,0.3934,-0.2138,0.193,-3.6,-28.8,-43,171.2,-2.12,0.32,66337
-1.2175,-0.7003,12.0799,0.0625,0.1717,9.8049,-0.237,0.3396,0.1625,-4.2,-29.4,-42.5,172.98,-1.71,-0.8,66439
-0.2179,0.5423,8.3881,-0.0501,0.1175,9.8058,-0.1747,0.0965,0.2065,-4.8,-29.6,-42.1,170.18,-0.96,0.1,66541
-0.1269,0.7673,9.1375,-0.0469,0.0778,9.8062,0.0159,-0.0171,0.1625,-5.4,-29.3,-42.3,169.67,-0.43,0.31,66644
-0.8116,0.8571,9.432,-0.1816,0.2244,9.8024,0.0391,0.0745,-0.0794,-5.8,-28.9,-42.5,166.61,-1.25,0.93,66746
0.0359,0.3962,11.1534,-0.0621,0.3878,9.7988,0.2615,-0.16,-0.077,-5.9,-29,-42.5,166.75,-1.76,0.72,66847
0.1508,0.1808,10.0724,0.0661,0.5993,9.7881,0.2676,-0.1686,-0.0232,-6.3,-29.6,-42,168.16,-3.61,-0.38,66949
0.1616,0.6333,8.2995,0.0344,0.4355,9.7969,-0.066,0.0012,-0.1564,-6.6,-30.1,-41.8,166.3,-2.55,-0.2,67052
-0.1963,0.929,8.7281,-0.0649,0.2211,9.8039,0.0367,0.1698,-0.0464,-6.5,-30,-42,168.05,-1.65,0.13,67153
0.0204,1.5155,8.4551,-0.2336,0.3001,9.7993,0.0464,0.0428,-0.1173,-6.1,-29.5,-42.7,166,-1.62,1.24,67255
-0.5279,0.6009,10.9056,-0.3187,0.3368,9.7957,0.0415,0.1454,-0.1026,-5.6,-29.5,-43.1,165.29,-1.85,1.66,67358
0.5722,0.8511,9.5325,-0.3497,0.5208,9.7866,-0.1173,-0.2468,0.0648,-5.2,-29.6,-42.8,166.81,-2.68,2.07,67459
-0.5207,0.7386,8.5677,-0.2436,0.279,9.7997,-0.0073,-0.1881,0.0391,-5,-29.6,-42.5,168.15,-1.63,1.42,67561
-0.1963,0.4585,8.078,-0.1032,0.1613,9.8048,-0.1454,-0.0782,0.0904,-5.2,-29.4,-42.6,168.84,-1.39,0.69,67663
-0.4262,1.336,7.7608,-0.1169,0.1354,9.805,0.1417,0.1185,0.0684,-5.8,-28.7,-43.2,167.51,-0.42,0.47,67765
-0.5686,0.899,10.422,-0.1686,0.1269,9.8044,0.1466,-0.0855,-0.066,-6.1,-28.5,-43.3,166.24,-0.75,0.96,67868
0.0742,-0.2646,10.9427,-0.0572,0.3586,9.7999,0.3115,-0.0635,-0.0648,-6.3,-28.4,-43.3,166.23,-1.98,0.66,67969
-0.3974,-0.577,10.5453,-0.1664,0.2278,9.8026,-0.0086,-0.0305,0.0049,-6.2,-28.8,-43.2,166.53,-1.39,0.92,68071
0.1999,0.3077,9.2955,-0.0593,0.2012,9.8044,-0.121,-0.1503,-0.0965,-6,-29,-42.8,167.45,-1.18,0.35,68174
-0.2562,1.0798,7.9045,-0.0572,0.1921,9.8046,0.1393,-0.0086,-0.066,-5.9,-28.8,-43.1,167.68,-0.88,0.25,68275
0.0407,1.2546,9.1662,-0.063,0.2934,9.8021,0.0635,0.0367,-0.0183,-5.8,-28.9,-43.1,167.33,-1.55,0.34,68377
-0.2322,1.3455,10.574,-0.012,0.5038,9.7937,0.3592,0.0916,0.1063,-5.7,-29.2,-43.1,167.25,-2.95,0.07,68479
-1.1863,0.0215,11.7268,-0.0917,0.5691,9.7897,-0.1185,0.0342,0.1014,-5.5,-29.7,-42.7,168.71,-3.85,0.53,68581
-0.2765,0.5363,8.5461,0.0221,0.403,9.7983,-0.1381,-0.2309,0.1258,-5.6,-30,-42.5,168,-2.79,-0.09,68684
0.0168,0.6883,8.1032,0.0019,0.218,9.8042,-0.1491,-0.0171,0.0696,-5.8,-30,-42.5,168.24,-1.45,0.03,68786
-0.1209,1.4724,7.2736,-0.0887,0.2662,9.8026,0.0684,0.0134,-0.1051,-6,-29.5,-42.8,167.28,-1.16,0.47,68888
-0.5746,0.2011,12.2188,-0.0055,0.3952,9.7987,0.121,-0.1735,-0.0806,-6.2,-29.3,-43.4,167.21,-2.09,0.3,68989
-0.9098,-0.7171,11.7017,0.014,0.4735,9.7952,-0.1161,-0.0867,-0.0965,-6.1,-29.6,-43.2,167.98,-2.77,-0.08,69092
0.7326,0.6716,8.6479,0.0284,0.3831,9.7991,0.0953,-0.0562,0.1148,-6.2,-29.7,-43.2,167.99,-1.96,0.09,69193
-0.0431,1.1301,7.4711,0.043,0.2126,9.8043,-0.066,0.1576,-0.0049,-6.3,-29.6,-43.3,168.69,-1.24,-0.25,69295
-0.3627,1.1875,8.5042,-0.0237,0.1979,9.8046,0.0538,-0.0257,0.0623,-6.4,-29.2,-43.6,167.74,-0.96,0.18,69397
-0.5543,0.5686,11.4766,-0.0897,0.3566,9.7998,0.1808,0.0281,0.1417,-6.4,-29,-43.7,167.02,-1.77,0.48,69499
-0.7003,1.1648,9.6211,-0.191,0.6162,9.7854,-0.1136,-0.1576,0.2224,-6.3,-29.3,-43.5,165.59,-3.35,1.06,69601
-0.1341,0.8056,9.3218,-0.0959,0.5051,9.7932,0.0086,-0.022,0.3238,-6.6,-29.7,-43.1,165.03,-2.95,0.56,69703
-0.0431,0.4381,9.0549,0.0823,0.452,9.7959,-0.2199,0.0611,0.0159,-7.5,-29.9,-42.8,166.67,-2.88,-0.55,69805
-0.4166,0.9002,8.8849,-0.0023,0.3868,9.799,0.1136,0.1723,-0.0574,-8.1,-29.5,-42.7,163.89,-2.28,-0.17,69908
-1.0798,0.9301,10.0449,-0.1384,0.4697,9.7944,0.0244,0.0782,-0.2065,-8.4,-29.4,-42.7,162.27,-2.75,0.81,70009
0.2263,-0.0012,11.1725,-0.1265,0.5627,9.7897,0.0806,0.0464,-0.1857,-7.7,-29.5,-42.6,162.02,-3.26,0.8,70112
-0.1053,0.0706,10.1742,-0.2357,0.4198,9.7948,0.055,0.0244,-0.1002,-7.2,-29.6,-42.4,164.53,-2.59,1.05,70213
-0.3962,0.0802,10.5201,-0.1139,0.1554,9.8048,-0.2028,0.0953,-0.1784,-6.5,-29.5,-42.6,167.07,-0.91,0.67,70316
-0.6847,1.0475,7.695,-0.2242,0.0597,9.8039,-0.0489,0.0867,-0.1283,-6,-29,-43,166.54,-0.44,1.15,70418
-0.7374,0.8751,9.3733,-0.2127,0.1239,9.8036,0.0012,0.0049,-0.1087,-5.6,-28.5,-43.3,165.81,-0.51,1.31,70520
-0.571,1.2737,10.4291,-0.2651,0.3357,9.7973,0.3262,0.1429,0.2749,-5.4,-28.2,-43.5,167.45,-1.14,1.39,70621
-0.923,-0.899,13.362,-0.1529,0.3094,9.8006,-0.2883,-0.3201,-0.011,-5.4,-28.5,-43.2,167.22,-2.38,1.26,70723
-0.1389,0.5207,8.4252,0.0256,0.3022,9.802,-0.033,-0.3042,0.0843,-5.9,-28.8,-43.1,166.98,-1.96,0.49,70825
-0.3472,0.5483,8.3845,0.1053,0.1244,9.8053,-0.0367,-0.1136,0.0501,-6.7,-28.8,-43,166.69,-0.81,-0.38,70928
-0.5483,0.9254,8.521,0.0995,0.1005,9.8056,-0.0061,0.0098,-0.0195,-7.2,-28.4,-43,166.54,-0.69,-0.57,71029
-0.65,0.237,12.2248,0.1132,0.1745,9.8044,0.1136,-0.1552,-0.1026,-7.5,-28.1,-43,166.57,-1.02,-0.66,71131
1.0989,0.2717,10.5093,0.1214,0.4182,9.797,-0.1344,0.0489,-0.2199,-7.6,-28.3,-42.9,164.07,-2.65,-0.78,71233
0.7614,0.1101,8.6119,0.1244,0.3663,9.799,-0.0501,-0.0391,-0.0745,-7.4,-28.8,-42.8,166.73,-2.14,-0.73,71335
-0.0431,0.3304,8.8597,0.114,0.2056,9.8038,-0.2004,0.0476,-0.0831,-7.3,-28.8,-42.7,167,-1.57,-0.77,71438
-0.2634,1.2881,8.2181,0.0333,0.1587,9.8053,-0.0696,0.066,0.011,-6.9,-28.5,-43.3,165.91,-0.93,-0.19,71539
-0.5375,0.9625,10.3549,-0.0596,0.1778,9.8049,0.1063,0.1943,0.0586,-6.8,-28.2,-43.3,165.6,-0.96,0.01,71642
-0.0982,1.1289,12.5923,-0.1359,0.2968,9.8012,0.1234,-0.0305,0.193,-6.4,-28.2,-43.3,166.12,-1.73,0.79,71743
-1.3515,-0.2478,11.1282,-0.2489,0.4029,9.7952,0.0623,0.0428,0.1747,-6.2,-28.4,-43,165.2,-2.2,1.28,71845
0.0551,0.2023,8.8681,-0.1127,0.4827,9.7941,-0.3384,-0.1662,0.022,-6.2,-28.9,-42.9,166.4,-2.82,0.66,71948
-0.401,1.0906,8.4575,-0.0401,0.3561,9.8001,0.0122,0.0012,-0.0379,-6.7,-28.8,-42.9,165.21,-2.09,0.31,72050
-0.6943,0.9673,9.8114,-0.0295,0.4207,9.7976,0.044,-0.0342,-0.0929,-7.1,-28.8,-42.7,165.39,-2.31,0.13,72151
-1.002,0.656,11.9207,-0.1716,0.4668,9.794,-0.1258,0.3677,-0.1063,-7.3,-28.8,-42.9,163.94,-2.73,1,72253
-1.3408,-1.2965,12.639,-0.3297,0.3178,9.796,-0.4325,0.3286,-0.1454,-6.9,-28.8,-43,162.79,-2.75,1.78,72355
0.091,-0.3256,11.6574,-0.3614,0.001,9.8,-0.0941,-0.1784,-0.0257,-5.8,-28.1,-43.7,163.82,-0.8,2.54,72458
-0.1041,0.8667,7.3287,-0.4111,-0.0974,9.7975,0.0757,0.0049,0.0147,-5.2,-27.5,-44,166.15,0.78,2.36,72559
-0.079,1.2186,9.2644,-0.3105,-0.028,9.8017,0.0367,-0.0782,-0.0525,-4.8,-26.9,-44.8,166.68,0.16,1.81,72661
-0.9301,0.5866,10.9439,-0.3858,0.1354,9.7981,0.1332,0.1576,-0.0049,-4.9,-26.9,-44.9,166.58,-0.09,1.82,72763
0.3065,0.334,10.6614,-0.2834,0.3821,9.7951,0.1161,-0.1527,0.2468,-4.9,-27.4,-44.7,165.14,-2.21,2.17,72865
-0.4836,0.662,8.5569,-0.1008,0.3682,9.7992,0.2492,-0.2834,0.3702,-5.3,-27.7,-44.4,167.91,-1.7,0.93,72967
0.2981,0.571,8.4096,0.126,0.3709,9.7988,-0.0574,-0.16,0.1894,-6.5,-28.2,-44.2,168.24,-2.47,-0.74,73069
0.2442,1.5718,7.6818,0.0654,0.5076,9.7933,0.2615,0.1124,0.1686,-7.7,-28.4,-43.9,163.83,-2.52,-0.59,73172
-0.583,0.6788,10.3729,0.0188,0.6274,9.7865,0.1784,0.0403,-0.1662,-7.9,-28.7,-43.7,163.66,-3.34,-0.35,73273
-0.2693,0.6823,10.161,0.0574,0.8467,9.7699,0.2407,-0.2162,0.0049,-7.8,-29.4,-43.3,162.89,-4.95,-0.34,73375
-0.176,0.2837,11.1701,0.1038,0.6623,9.7837,-0.5901,0.182,-0.3702,-7.7,-29.9,-43,164.6,-4.5,-0.92,73477
0.3531,0.8499,9.2859,0.192,0.5838,9.7874,-0.3457,-0.0855,-0.1051,-7.4,-30.2,-43.1,167.33,-3.41,-1.12,73580
-0.2813,1.4808,7.6818,0.1105,0.5397,9.7912,-0.0867,0.1955,-0.11,-7.3,-30.2,-43.1,167.44,-3.19,-1.15,73681
-0.4812,1.4653,8.6227,-0.0507,0.4987,9.7938,-0.0171,0.1356,-0.0696,-6.9,-29.9,-43.8,166.02,-3.09,-0.17,73783
-0.4944,1.1492,12.7132,-0.1839,0.4971,9.7923,-0.0147,0.0586,0.182,-6.5,-29.8,-43.9,166.79,-2.86,0.68,73885
0.3472,0.1389,12.0931,-0.0902,0.4839,9.7943,-0.3445,-0.2871,0.066,-6,-29.6,-43.7,165.9,-3.42,1.13,73988
-0.0239,0.8631,8.0673,0.034,0.5972,9.7884,0.3616,-0.1112,0.452,-6.2,-29.5,-43.3,167.03,-2.89,0.23,74090
-0.1939,0.8487,8.3462,0.2577,0.5483,9.7879,-0.0672,0.0501,0.0086,-7.3,-29.5,-43.2,167.39,-3.26,-1.43,74192
0.1137,1.4401,7.7309,0.2729,0.6405,9.7819,0.2321,0.0073,-0.0476,-8.4,-29.5,-42.8,165.41,-3.74,-1.6,74293
-0.0431,0.8356,11.6083,0.2762,0.725,9.7759,0.1429,-0.1112,-0.1979,-8.6,-29.7,-42.7,163.6,-4.07,-1.46,74396
0.431,1.4856,9.6391,0.2104,0.9409,9.7591,0.3311,0.1637,-0.1588,-8.4,-30.4,-42.4,164.64,-5.51,-1.24,74497
-0.8691,-0.3328,12.2032,0.0473,0.7153,9.7804,-0.1869,0.2712,-0.3494,-7.9,-30.8,-42.2,165.54,-5.4,-1.45,74599
-0.498,0.2658,10.5788,0.0808,0.5784,9.7892,-0.2248,0.0073,-0.1552,-6.9,-30.8,-42.4,166.55,-4.08,-0.44,74702
-0.3603,1.4868,6.9911,-0.0289,0.533,9.7921,-0.0183,0.1857,-0.0293,-6.3,-30.5,-42.8,167.88,-3.22,-0.12,74803
-0.4525,1.2929,9.8964,-0.0325,0.4288,9.7972,-0.1759,-0.0086,0.0159,-5.5,-30.1,-43.4,169.62,-2.72,0.15,74906
-0.2322,1.4066,11.5604,-0.0751,0.4337,9.7968,0.1014,0.0269,0.2566,-5.3,-29.7,-43.8,169.22,-2.42,0.46,75007
-0.8859,-0.4824,14.692,0.1101,0.3384,9.8002,-0.27,-0.4215,0.0415,-5.5,-29.4,-44.1,170.68,-1.98,-0.64,75109
-0.2239,0.7685,7.9104,0.159,0.4816,9.7935,0.2321,-0.2615,0.11,-6.1,-29.2,-44,168.2,-2.5,-0.45,75211
-0.8248,0.3124,8.5341,0.1659,0.4122,9.7966,0.088,-0.055,-0.0391,-6.7,-29.3,-43.7,167.29,-2.49,-1.17,75314
-0.1053,1.3192,7.9248,0.1738,0.6054,9.7864,0.0244,-0.0232,-0.1124,-6.9,-29.6,-43.4,167.13,-3.54,-1.02,75416
-0.3603,0.729,11.0002,0.215,0.6004,9.7859,-0.0672,-0.1405,-0.2077,-7,-29.9,-43.2,167.21,-3.61,-1.09,75517
1.136,0.3771,10.4567,0.1802,0.3854,9.7974,-0.3763,0.0073,-0.2529,-6.8,-30.1,-42.9,167.36,-3.44,-1.15,75619
0.5231,0.6201,7.6279,0.0283,0.1837,9.8049,-0.0086,-0.1185,-0.0782,-6.2,-29.6,-43.4,168.55,-0.84,-0.07,75721
-0.1353,0.1999,8.819,0.156,-0.0732,9.8051,-0.3775,-0.1368,-0.2004,-5.6,-28.9,-44.1,169.76,0.43,-0.91,75823
-0.0754,1.1121,8.0158,0.1586,-0.1036,9.8048,-0.0195,-0.0623,0.0232,-5.2,-28.2,-44.6,171.19,0.52,-0.76,75926
-0.3424,0.9732,10.234,0.1643,-0.1401,9.8043,-0.0782,0.1087,-0.0464,-5.2,-27.5,-44.7,171.51,0.71,-1.13,76027
-0.2035,0.9792,12.0225,0.0638,6.00E-04,9.8064,0.16,0.0782,0.1686,-5.2,-27.4,-44.4,170.69,0.72,-0.63,76130
-0.8559,-1.0439,12.6498,0.2394,-0.0747,9.8034,-0.1955,0.0159,-0.0257,-5.3,-27.5,-44.4,171.73,0.12,-1.38,76231
-0.1209,0.0658,8.9926,0.2897,0.174,9.8008,-0.1393,0.1014,0.0061,-5.6,-27.9,-44.1,170.4,-1.23,-1.85,76333
-0.6955,0.3029,9.0022,0.1663,0.1204,9.8045,0.0941,0.2712,0.0709,-5.8,-28.2,-43.9,169.55,-0.69,-1.21,76435
-0.6129,0.5758,9.6139,-0.0069,0.1935,9.8047,0.0305,0.1344,0.1148,-5.6,-28.5,-43.7,167.47,-1.13,0.04,76537
-0.1101,0.4465,9.833,0.0439,0.2716,9.8028,0.1991,0.0086,0.1991,-5.6,-28.6,-43.6,168.3,-1.15,-0.24,76639
-0.0443,0.0611,11.0923,0.0863,0.2226,9.8037,-0.4985,0.1038,-0.2419,-5.7,-28.8,-43.5,168.65,-1.88,-0.62,76741
0.3124,0.3795,9.4858,0.0994,0.1055,9.8056,0.1222,-0.0428,0.033,-5.9,-28.8,-43.7,168.93,-0.56,-0.53,76844
-0.2454,0.7266,7.677,-0.0529,-0.0184,9.8065,-0.0208,0.2688,0.0843,-6.1,-28.3,-43.9,167.48,0.11,0.31,76946
-0.4752,0.9589,8.3809,-0.2634,-0.0621,9.8029,0.0513,0.033,0.2334,-5.8,-27.9,-44.2,166.16,0.41,1.27,77047
-0.583,0.2143,11.0049,-0.3315,-0.1356,9.8001,-0.1723,0.1246,0.1429,-5.5,-27.4,-44.4,166.9,0.65,1.82,77149
0.0299,-0.6536,11.3952,-0.1611,0.0034,9.8053,0.1588,-0.1442,0.2175,-5.4,-27.2,-44.9,167.33,-0.14,1.33,77251
-0.6883,0.1879,9.4631,-0.0329,-0.1269,9.8058,0.1503,-0.0452,0.2468,-6,-27.1,-45,167.43,0.74,0.19,77353
-0.5794,-0.0168,8.8825,0.1569,-0.1669,9.804,-0.1808,0.1075,-0.0049,-7.3,-27,-44.8,167.12,0.58,-0.92,77455
-0.6189,0.6608,8.6107,0.1037,-0.1567,9.8049,0.1417,0.0183,0.0794,-7.9,-26.8,-44.9,165.13,1.22,-0.74,77557
-0.6835,0.6297,10.6973,0.019,-0.0066,9.8066,0.0513,-0.0061,-0.0623,-8.2,-26.9,-44.5,163.9,0.34,-0.17,77659
-0.0766,0.2598,10.1885,0.0241,0.2465,9.8035,0.2798,0.0098,-0.0464,-8.1,-27.1,-44,163.46,-0.9,-0.25,77761
-0.1472,-0.7254,11.9926,0.0791,0.1085,9.8057,-0.3775,-0.0977,-0.4032,-8.1,-27.6,-43.6,164.66,-1.41,-0.81,77863
0.1173,0.3412,8.4348,-0.0592,0.024,9.8064,-0.2639,-0.0012,-0.2517,-7.7,-27.9,-43.8,163.3,-0.59,0.35,77966
-0.3615,0.5674,8.5868,-0.0568,-0.2238,9.8039,-0.0073,0.0672,-0.0403,-7.1,-27.6,-44.1,166.02,1.15,0.25,78068
0.3855,1.0523,9.4846,-0.0018,-0.2407,9.8037,-0.0134,-0.1148,-0.1368,-6.3,-27.1,-44.6,167.53,1.28,0.25,78169
-0.5483,-0.0192,11.9076,0.1052,-0.1331,9.8052,0.2346,-0.0672,-0.0721,-6,-26.6,-44.5,168.67,0.78,-0.61,78271
0.2394,-0.838,11.0014,0.103,0.0406,9.806,-0.0819,-0.2175,0.1014,-5.9,-27,-44.6,167.75,-0.38,-0.26,78373
-0.0443,0.6333,8.9004,0.0745,0.0448,9.8063,0.1246,-0.1368,0.2553,-6.1,-27.4,-44.4,168.06,-0.26,-0.44,78476
-0.5064,0.5219,8.1116,0.0684,-0.0357,9.8063,-0.2272,0.0819,0.0599,-6.3,-27.6,-44.2,168.58,-0.32,-0.51,78577
-0.5052,0.6273,8.4958,0.1641,-0.0226,9.8053,0.1246,0.022,-0.011,-6.9,-27.6,-44.1,167.44,0.13,-0.96,78679
0.0491,0.6357,10.9319,0.2628,0.1395,9.8021,0.1955,-0.2578,-0.1808,-7.2,-27.6,-43.8,167.43,-0.44,-1.08,78781
0.1413,0.2418,9.8354,0.2767,0.3648,9.796,0.2786,0.1368,-0.1588,-7.2,-27.9,-43.6,167.61,-1.59,-1.46,78883
-0.176,-0.419,10.6279,0.1986,0.0289,9.8046,-0.2602,0.2077,-0.2822,-6.9,-28.3,-43,167.96,-0.62,-1.5,78985
-0.0467,-0.1963,9.0728,0.2533,-0.0964,9.8029,-0.2993,0.0452,-0.0586,-6.6,-28.4,-43.3,168.16,-0.17,-1.54,79087
-0.0646,1.0127,7.7153,0.2654,-0.1072,9.8025,0.1124,-0.0293,0.1124,-6,-27.8,-43.8,170.42,0.63,-1.55,79190
-0.2538,0.4357,11.0301,0.2823,-0.0939,9.8021,-0.0024,0.0562,-0.0733,-5.8,-27.4,-44.2,170.21,0.55,-1.65,79291
-0.3579,0.2358,11.8752,0.1231,0.0427,9.8058,0.4435,0.2101,0.2395,-5.7,-27.2,-44.2,169.31,0.4,-1.1,79393
-0.3496,-0.1951,10.7344,0.0154,0.2798,9.8026,0.0098,0.0208,0.259,-5.5,-27.8,-43.8,169.55,-1.63,-0.09,79495
0.3053,0.7961,8.3426,0.1471,0.3209,9.8003,0.0831,-0.3323,0.2639,-5.5,-28.1,-43.7,170.72,-1.88,-0.86,79598
-0.3962,0.4645,8.7795,0.3117,0.1371,9.8007,-0.1173,-0.0599,0.1087,-6.3,-28.4,-43.6,170.25,-1.02,-1.72,79699
0.1317,1.6029,7.9535,0.3128,0.2572,9.7983,0.1967,0.1295,-0.1735,-6.9,-28.4,-43.8,168.63,-0.9,-1.96,79801
-0.4202,0.3519,11.825,0.1661,0.4146,9.7965,0.1161,0.0379,-0.1723,-7.3,-28.5,-43.5,167.56,-1.82,-1.5,79903
1.5347,0.7446,10.0102,0.1718,0.4757,9.7936,0.0024,-0.1735,0.0635,-6.9,-29,-43.1,166.5,-2.92,-0.77,80005
-0.2634,-0.4334,11.2731,0.1497,0.1411,9.8045,0.0305,-0.0024,0.0929,-6.6,-29,-42.7,167.37,-1.03,-0.9,80107
-0.158,0.3005,8.837,0.1696,-0.0522,9.805,-0.3519,-0.0428,-0.0318,-6.2,-28.6,-43.1,169.68,-0.05,-0.96,80210
0.1604,1.0415,8.7364,0.1794,-0.0703,9.8048,-0.0061,-0.0037,0.011,-6.3,-27.8,-43.9,169.61,0.41,-1.05,80312
-0.1628,0.6955,10.2268,0.0662,-0.0502,9.8063,-0.0061,0.204,-0.0367,-6.3,-27.6,-44.2,169.11,0.31,-0.74,80413
0.2394,0.559,8.7448,0.0137,0.2009,9.8046,0.3262,0.1454,0.2382,-6.2,-27.6,-43.8,167.64,-1.17,-0.08,80515
-0.4764,-0.2394,11.5448,0.0355,0.1047,9.806,-0.4337,-0.0721,0.1038,-6.2,-27.8,-43.4,167.58,-1.32,-0.07,80617
0.2334,0.2131,10.2484,0.3298,-0.0248,9.8011,-0.237,-0.3897,0.0709,-6.6,-27.8,-43.4,167.75,-0.24,-1.28,80719
-0.2346,0.5567,6.839,0.3318,-0.0373,9.801,-0.2126,-0.2065,-0.0208,-7.2,-27.6,-43.7,168.94,0.27,-1.93,80821
0.0132,0.9744,9.578,0.3465,0.0584,9.8004,0.3152,0.0892,0.0269,-8,-27.3,-44.1,166.46,-0.34,-2.02,80924
0.0263,0.1903,11.7855,0.342,0.3602,9.7941,0.5253,0.0489,-0.0953,-8.1,-27.4,-44.1,166.43,-0.6,-2.07,81026
0.4681,-0.1628,11.2587,0.3477,0.5101,9.7872,-0.4618,0.2138,-0.4643,-7.8,-28.3,-43.3,165.64,-3.31,-1.97,81127
0.3519,0.504,8.4384,0.1795,0.3037,9.8003,-0.0049,0.099,-0.1148,-7.1,-28.9,-42.9,167.44,-1.75,-1.11,81229
-0.2215,0.9337,7.8422,0.1463,0.1074,9.805,-0.1148,-0.0012,0.1038,-6.3,-29.2,-43.1,169.36,-0.63,-0.85,81332
0.2047,1.3443,8.4396,0.2083,0.0456,9.8043,0.0819,-0.0794,0.2028,-5.8,-28.6,-43.5,169.99,-0.27,-1.22,81433
-0.3962,0.0419,12.5133,0.3257,0.0443,9.8011,0.3653,0.0464,0.27,-6,-28.3,-43.7,170.43,-0.3,-1.71,81535
0.3543,0.2466,10.1371,0.2292,0.3842,9.7964,0.3604,0.1698,0.3824,-6.6,-28.4,-43.5,167.16,-2.25,-1.34,81637
0.0168,0.5758,8.8334,0.1639,0.327,9.7998,0,-0.0672,0.3128,-7.1,-28.7,-43.4,167.44,-1.96,-1.16,81739
-0.0251,0.3651,9.6798,0.3881,0.0634,9.7988,-0.3091,0.0904,0.0428,-7.8,-28.9,-43.2,167.55,-0.94,-2.33,81841
-0.2143,1.0546,9.1626,0.3183,0.0141,9.8015,-0.0269,0.0147,0.0623,-8.3,-28.5,-43.4,166.93,0.03,-1.98,81944
-0.9278,0.6847,10.3154,0.2652,0.19,9.8012,0.1185,0.0232,-0.1881,-8.6,-28,-43.5,163.91,-1.11,-1.55,82045
-0.2406,0.4465,10.647,0.2713,0.4491,9.7926,0.0684,0.0464,-0.226,-8.6,-28,-43.5,163.44,-1.98,-1.5,82147
-0.7673,-0.7614,12.2727,0.1492,0.0855,9.8051,-0.606,0.088,-0.3763,-8.2,-28.4,-43.2,165.23,-1.34,-1.17,82250
-0.097,0.164,9.3398,0.1096,-0.0134,9.806,-0.2908,-0.0501,-0.1576,-7.5,-28.3,-43.2,166.92,0.08,-0.64,82351
-0.2322,0.7326,8.7676,0.0252,-0.153,9.8054,-0.1258,0,-0.1112,-6.9,-27.9,-43.6,166.32,0.67,-0.08,82454
-0.5986,0.4178,10.4016,-0.0044,-0.1329,9.8057,0.0794,0.099,0.0098,-6.2,-27.4,-43.8,167.69,0.78,0.03,82556
-0.2693,1.0894,11.3737,-0.0535,0.1622,9.8052,0.3653,-0.0061,0.2334,-5.8,-27.5,-43.8,166.8,-0.23,0.38,82658
-0.2765,-0.9768,13.1717,0.0898,0.2747,9.8024,-0.6206,-0.3115,-0.0244,-6,-28,-43.5,166.88,-2.38,0.14,82759
0.2873,0.9301,6.8582,0.0264,0.407,9.7982,-0.0721,-0.1943,0.1625,-6.4,-28.5,-43.2,167.34,-1.57,0.03,82861
-0.4513,0.2418,9.001,0.0888,0.1445,9.8052,-0.314,-0.0195,-0.0586,-7.3,-28.8,-43.3,166.79,-1.37,-0.58,82964
-0.1341,1.6005,8.1678,0.0813,0.119,9.8056,0.0501,-0.0208,0.0208,-7.6,-28.5,-43.5,164.39,-0.63,-0.41,83066
-0.4154,0.3376,10.7727,0.1681,0.1349,9.8043,0.1491,-0.0269,-0.1869,-7.8,-28.3,-43.5,165.09,-0.6,-0.89,83167
-0.0431,0.267,10.2987,0.1829,0.3317,9.7993,0.2663,-0.0122,-0.1075,-7.7,-28.3,-43.4,164.97,-1.17,-0.96,83269
-0.1496,-0.0934,10.884,0.0894,0.1515,9.8051,-0.2199,0.0525,-0.215,-7.3,-28.6,-43.2,166.9,-1.25,-0.63,83372
-0.51,0.3891,9.3721,-0.0373,0.0343,9.8065,-0.1845,0.2065,-0.0867,-6.6,-28.6,-43.8,166.05,-0.2,0.22,83473
-0.595,1.1277,8.3534,-0.2817,0.0097,9.8026,0.1087,0.088,0.2028,-5.9,-28.3,-44.4,165.81,0.02,1.42,83575
-0.9361,0.6835,9.7899,-0.3147,0.1124,9.801,0.0562,-0.0159,0.2297,-5.4,-28.1,-44.5,166.91,-0.47,1.86,83677
-0.2813,1.1073,8.8837,-0.2666,0.3353,9.7973,0.4105,-0.0147,0.4679,-5.4,-28.4,-44.5,166.83,-1.96,1.56,83780
-0.8248,-0.7626,12.3876,-0.0215,0.2841,9.8025,0.0208,-0.4154,0.1613,-5.9,-28.7,-44,166.46,-2.05,0.78,83881
-0.3747,0.4549,8.8597,0.0544,0.2448,9.8034,-0.1161,0.0929,0.1148,-7.2,-29,-43.7,166.38,-1.43,-0.32,83983
-0.4741,0.7997,8.7855,-0.0471,0.085,9.8062,-0.0305,0.0623,-0.0403,-7.8,-28.8,-43.4,164.31,-0.68,0.01,84085
-0.0072,1.3479,9.0285,-0.086,0.2013,9.8042,0.1674,-0.0098,-0.2529,-8.1,-28.4,-43.8,163.04,-0.85,0.44,84188
-0.6632,0.6548,10.4818,-0.0447,0.4276,9.7972,0.3152,-0.044,-0.3604,-7.7,-28.6,-43.9,163.32,-1.87,0.33,84289
-1.0223,-0.5207,11.5987,-0.0472,0.3855,9.799,-0.4325,0.182,-0.5657,-6.9,-29.4,-43.6,165.18,-2.25,0.28,84391
0.3615,0.9744,8.2229,-0.1722,0.4455,9.795,-0.2786,0.0464,-0.1075,-6.2,-29.8,-43.4,166.56,-2.72,0.9,84494
-0.5602,0.8487,8.4874,-0.2217,0.2025,9.8021,0.0232,0.121,-0.0843,-5.2,-29.7,-43.4,168.41,-1.18,1.3,84595
-0.3615,1.2282,7.9703,-0.2548,0.2264,9.8007,0.0599,-0.0367,-0.0525,-4.5,-29.4,-43.6,169.45,-1.34,1.58,84697
-0.6369,0.5818,10.9247,-0.112,0.2788,9.802,0.2309,-0.2908,0.0623,-4.1,-29,-43.9,170.13,-1.25,1.15,84799
0.0144,0.6201,11.1127,-0.0017,0.4028,9.7984,-0.1857,-0.0843,0.2566,-4.2,-29.2,-43.9,171.15,-2.38,0.29,84901
-1.0163,0.6572,10.2939,0.2035,0.4143,9.7958,0.099,-0.1881,0.0586,-5,-29.3,-43.4,170.58,-2.28,-0.64,85003
-0.0443,0.7578,7.3598,0.3387,0.4923,9.7884,-0.088,-0.0501,-0.1234,-5.9,-29.6,-43,170.62,-3.02,-1.9,85105
-0.4238,0.9086,7.6591,0.3028,0.5283,9.7877,0.2492,0.0281,-0.022,-6.7,-29.7,-43.1,168.74,-2.59,-1.89,85208
-0.4633,0.5447,9.9994,0.227,0.6211,9.7843,0.0513,0.0623,0.1014,-6.9,-30,-43.3,168.01,-3.54,-1.6,85309
1.6927,0.6752,9.1638,0.1942,0.742,9.7766,0.099,-0.0208,0.1197,-6.9,-30.3,-43.6,166.92,-4.2,-1.04,85411
0.4477,0.7398,7.993,0.0376,0.278,9.8026,-0.1772,0.2639,0.0293,-6.7,-30.3,-43.3,167.36,-2.1,-0.84,85514
0.0239,0.5375,9.4882,-0.0587,-0.0601,9.8063,0.0293,-0.0635,0.0049,-6.3,-29.6,-43.5,168.27,0.06,0.32,85615
0.103,0.9768,8.2133,-0.1204,-0.1192,9.8052,-0.1051,0.193,-0.0354,-5.7,-28.4,-44.4,167.09,0.7,0.7,85717
-0.5722,0.5938,9.5768,-0.2333,-0.1032,9.8033,-0.0195,0.1002,0.0305,-5.3,-27.9,-44.8,168.26,0.63,1.17,85819
-0.2705,0.3292,8.8466,-0.1939,0.0603,9.8045,0.2187,-0.1503,0.3286,-5.1,-27.6,-45.1,168.01,-0.35,1.13,85922
-0.4848,-0.4908,12.4163,-0.0041,-0.0178,9.8066,-0.3409,-0.088,0.193,-5.1,-27.7,-44.8,169.6,-0.09,0.16,86023
0.2274,0.2897,9.5349,0.1618,-0.004,9.8053,-0.1014,-0.1833,-0.0012,-6.3,-27.8,-44.8,168.64,-0.19,-0.51,86125
-0.5375,0.3831,8.4515,0.1235,-0.0017,9.8059,0.0916,-0.0403,-0.0464,-6.9,-27.8,-44.6,167.2,0.08,-0.79,86227
-0.2107,1.1253,7.8243,0.103,0.1472,9.805,0.2162,0.0562,-0.0696,-7.3,-27.9,-44.5,166.78,-0.51,-0.67,86329
-0.1221,0.1879,9.8976,0.1595,0.2925,9.801,0.1552,0.0024,-0.2016,-7,-28.3,-43.9,167.21,-1.24,-1.12,86431
-0.5483,-0.723,12.0333,0.0653,-0.0081,9.8064,-0.4056,0.3836,-0.303,-6.4,-28.7,-43.6,169.72,-0.95,-1.14,86533
0.3089,0.2873,8.6227,-0.0184,1.00E-04,9.8066,-0.3457,0.0318,-0.1906,-5.9,-28.7,-43.6,167.99,-0.33,0.15,86635
-0.7338,0.4393,8.3474,-0.0348,-0.2031,9.8045,-0.16,0.0342,-0.1393,-4.9,-28.4,-44.4,169.89,1.19,0.2,86737
-0.2921,0.8655,9.0453,0.0273,-0.2135,9.8043,0.055,-0.0916,0.0428,-4.5,-27.8,-44.6,172.2,1.39,-0.02,86839
-0.2957,0.3711,11.1043,-0.0253,0.0204,9.8066,0.3299,0.1454,0.1173,-4.4,-27.6,-44.6,171.97,0.43,0,86941
0.3735,1.2917,8.9747,-0.1511,0.3906,9.7977,0.4985,0.16,0.3201,-4.4,-27.8,-44.4,170.24,-1.51,0.8,87043
-0.3879,0.4022,9.25,-0.1821,0.1814,9.8033,0.0428,0.0428,0.2126,-4.5,-28.6,-44,170.3,-1.06,1.06,87146
-0.2526,0.4046,9.3697,-0.0661,0.1005,9.8059,-0.325,-0.0354,0.0489,-4.6,-28.9,-44,169.49,-0.59,0.39,87248
-0.7362,0.7326,8.9172,0.0114,0.0892,9.8062,0.1136,-0.1686,0.0476,-5,-28.5,-44.5,169.89,-0.2,-0.04,87349
-0.3519,0.5363,9.7528,-0.0053,0.2921,9.8023,0.2346,-0.0244,0.0147,-5.4,-28.5,-44.5,169.34,-1.71,0.03,87451
-0.2622,1.0319,9.7384,0.0211,0.4947,9.7941,0.3274,0.1148,0.0586,-5.6,-28.8,-44.4,167.55,-2.89,-0.12,87553
-0.4178,-0.1125,10.7488,-0.0434,0.371,9.7995,-0.182,0.1295,-0.1307,-5.6,-29.6,-43.5,168.15,-2.92,-0.23,87655
0.0922,0.4441,10.1861,0.0768,0.2738,9.8025,-0.2224,-0.1613,-0.171,-5.5,-29.7,-43.4,170.47,-2.08,-0.3,87757
-0.4094,0.7673,9.6115,-0.0811,0.1166,9.8056,-0.1234,0.0733,-0.077,-5.1,-29.2,-43.4,169.35,-0.68,0.47,87859
-0.1748,1.3779,8.0278,-0.2609,0.2224,9.8007,-0.011,0.1381,0.0513,-4.7,-28.8,-43.7,168.07,-1.16,1.23,87961
-0.4262,0.7805,12.4582,-0.3002,0.2711,9.7983,0.0843,-0.0269,0.2553,-4.2,-28.6,-43.8,169.11,-1.58,1.75,88063
0.1149,0.3974,10.0281,-0.2059,0.4633,9.7935,-0.3335,-0.2395,0.099,-4.3,-29,-43.7,168.67,-3.29,1.69,88166
-0.249,0.7602,9.0058,-0.129,0.3687,9.7989,-0.0684,-0.0721,0.1319,-4.9,-29.3,-43.7,168.04,-2.06,1.05,88267
-0.4621,0.4764,8.8741,-0.1571,0.2389,9.8025,-0.1466,0.0831,0.0269,-5.5,-29.2,-43.8,168.42,-1.61,0.9,88369
-0.6045,1.0319,8.169,-0.2295,0.3348,9.7982,0.1772,0.0806,0.0342,-6,-28.8,-43.7,165.97,-1.66,1.2,88471
-0.7434,0.334,11.2731,-0.2179,0.4399,9.7944,0.1075,-0.0611,-0.0648,-6.1,-28.7,-43.4,165.58,-2.57,1.27,88574
-0.1305,0.6225,9.6139,-0.1788,0.5793,9.7879,-0.3775,-0.0867,-0.3299,-6,-29.1,-43.1,165.26,-3.56,1.22,88675
0.5914,0.6608,8.6395,-0.3168,0.2066,9.7994,-0.3042,0.2358,-0.2529,-5.6,-29.3,-43,165.27,-1.21,1.85,88777
-0.826,0.0587,10.1382,-0.3474,-0.0627,9.8003,-0.3848,0.0476,-0.3299,-5.1,-29.3,-43.2,167.3,-0.96,1.83,88880
-0.9242,1.0582,8.1989,-0.4547,-0.1152,9.7954,0.0342,0.0696,0.1539,-4.3,-28.3,-44.4,168.32,0.71,2.48,88981
-0.6129,0.7733,9.6415,-0.3208,-0.005,9.8014,0.099,-0.1881,0.1417,-4,-27.8,-45.2,168.05,0.47,2.55,89083
-0.3184,0.7147,10.2065,-0.3251,0.2996,9.7967,0.4924,0.1087,0.4239,-4.2,-27.7,-45.7,168.8,-0.9,1.74,89185
-0.8248,-0.4621,12.1087,-0.1951,0.3718,9.7977,-0.1185,0.1808,0.2297,-4.6,-28.2,-45.4,166.65,-2.54,1.48,89287
-0.5626,0.5459,8.26,-0.1048,0.2839,9.802,-0.055,-0.248,0.1002,-5.5,-28.8,-44.9,168.17,-1.98,0.95,89389
-0.4393,0.4896,9.4367,-0.0093,0.0605,9.8065,-0.1539,-0.1197,-0.0208,-6.3,-28.6,-44.7,168.12,-0.35,0.05,89492
-0.2837,0.8799,8.4922,0.0265,0.1842,9.8049,0.0794,-0.0648,-0.0684,-6.8,-28.3,-44.6,165.9,-0.8,-0.16,89593
-0.3926,0.3675,10.7176,0.0694,0.407,9.798,0.2456,0.0428,-0.1197,-7.1,-28.2,-44.2,165.95,-1.85,-0.46,89696
0.152,0.5674,9.8138,-0.0271,0.5013,9.7938,0.0379,0.0953,-0.1649,-7.1,-28.6,-43.9,165.35,-3.02,-0.04,89798
0.1927,0.4381,8.8526,-0.2268,0.2176,9.8016,-0.0721,0.121,-0.1075,-6.4,-29,-43.9,165.94,-1.27,1.33,89899
-0.2191,0.4369,8.5246,-0.3427,-0.0071,9.8007,-0.1527,0.0757,-0.0806,-5.8,-28.7,-44.3,165.81,-0.72,1.55,90001
-0.7015,0.9768,8.4946,-0.4156,-0.0916,9.7974,-0.0684,0.1063,-0.0171,-4.8,-27.9,-44.5,166.44,0.55,2.42,90104
-0.5363,0.6931,10.3202,-0.4199,0.0057,9.7977,0.1063,0.077,0.0819,-4.4,-27.4,-44.6,168.02,0.26,2.26,90205
-0.5171,1.0068,10.0796,-0.5194,0.2478,9.7898,0.4362,0,0.3201,-4.2,-27.3,-44.5,166.66,-0.73,2.97,90307
-1.7801,-0.4992,13.5201,-0.4005,0.2168,9.7961,-0.4386,-0.2688,-0.0367,-4.3,-27.7,-44.4,167.44,-2.03,2.46,90409
-0.6943,0.4729,9.1626,-0.3416,0.2833,9.7966,-0.0672,-0.226,0.0037,-4.7,-28.2,-44.3,165.95,-1.72,2.19,90511
-1.1349,-0.0479,9.7983,-0.3487,0.1577,9.7992,0.0367,-0.1161,0.0757,-5.1,-28.4,-44.2,166.2,-1.05,2.2,90614
-0.8404,0.8176,10.1011,-0.3444,0.3098,9.7957,0.0929,0.0232,0.0208,-5.5,-28.2,-43.7,166.18,-1.81,2.01,90715
-0.346,1.0092,11.0109,-0.3437,0.5206,9.7868,0.1967,-0.0391,-0.0269,-5.6,-28.3,-43.7,163.51,-2.62,2.21,90817
0.5183,0.3723,11.309,-0.2277,0.6323,9.7836,-0.2065,-0.0953,-0.204,-5.7,-29,-43.2,165.03,-3.7,1.33,90920
0.2825,0.68,9.1207,-0.1801,0.4894,9.7928,-0.0489,-0.0831,-0.0745,-5.7,-29.4,-43.1,165.41,-2.9,1.3,91021
-0.0922,0.9433,8.7532,-0.1372,0.3369,9.7999,-0.204,-0.0513,-0.1613,-5.6,-29.6,-43.1,166.71,-2.24,0.92,91124
-0.3735,1.5431,8.4108,-0.1776,0.3389,9.7992,0.0733,0.0916,-0.1161,-5.4,-29,-43.4,168.13,-1.98,1.04,91225
-0.5866,0.7781,10.7847,-0.2048,0.3847,9.797,0.0501,0.2016,-0.0195,-5.3,-28.8,-43.7,168.01,-2.29,1.02,91328
-0.3376,1.4006,9.1004,-0.3173,0.5777,9.7845,0.358,0.055,0.2798,-4.8,-28.9,-43.6,166.31,-3.38,1.86,91429
-0.8763,0.3926,9.159,-0.2482,0.4111,9.7949,-0.2883,0.0293,0.0904,-4.7,-29.1,-43.1,167.37,-2.4,1.45,91532
-0.3543,0.2969,9.1004,0.0178,0.3621,9.7999,-0.3274,-0.1649,0.0134,-5.1,-29.1,-42.8,169.03,-2.52,0.33,91633
-0.6644,0.9421,8.8406,0.0346,0.1749,9.805,0.0855,0.0721,0.0367,-6.1,-28.6,-43.1,168.36,-1.03,-0.25,91735
-0.9481,0.8547,9.4978,-0.0199,0.2409,9.8037,0.033,0.0574,-0.0696,-6.5,-28.3,-43.4,167.47,-1.33,0,91837
-0.3591,0.5674,10.7153,0.0139,0.3616,9.8,0.2028,-0.0379,-0.0367,-6.6,-28.2,-43.5,165.27,-2.11,-0.08,91940
-0.4597,-0.7302,12.8042,0.0124,0.1689,9.8052,-0.2089,0.1454,-0.1319,-6.5,-28.3,-43.3,168.08,-2.34,-0.62,92041
0.3567,0.3256,9.013,0.0017,0.3158,9.8016,0.2676,0.0073,0.0342,-6.3,-28.3,-43.1,167.32,-1.87,-0.03,92143
-0.0431,0.9984,7.8195,-0.0156,0.314,9.8016,0.0342,0.0733,-0.0037,-6.3,-28.3,-43.2,167.36,-1.77,-0.03,92245
-0.3208,1.2701,8.576,-0.0463,0.4019,9.7983,0.0403,0.0672,0.0696,-6,-28.3,-43.4,166.69,-2.35,0.27,92347
-0.3879,1.1061,9.7348,-0.1332,0.5036,9.7928,0.0757,0.077,0.1038,-5.9,-28.6,-43.4,166.7,-2.58,0.52,92449
-0.2849,0.8499,8.9004,-0.1845,0.633,9.7845,0.2297,0.1649,0.2321,-5.8,-29,-43.5,165.93,-3.32,0.84,92551
0.2442,0.82,8.8202,-0.1211,0.3877,9.7982,0.0037,-0.0672,0.2517,-6.1,-29.1,-43.6,166.32,-2.28,0.82,92653
-0.1053,0.3998,9.4463,-0.0556,0.1431,9.8054,-0.2517,0.0024,-0.1588,-6.4,-28.8,-43.7,167.36,-1.53,0.31,92755
-0.5375,1.1193,8.6981,-0.0782,0.0497,9.8062,-0.0147,0.0342,-0.0611,-6.8,-27.9,-43.8,165.18,-0.29,0.46,92857
-0.3675,1.1516,9.8581,-0.0847,0.1797,9.8046,0.099,0.0147,-0.1894,-6.8,-27.6,-44.2,164.96,-0.8,0.46,92960
-0.5866,0.5531,10.3872,-0.1003,0.3492,9.7999,0.0281,-0.0086,-0.4019,-6.4,-27.7,-44.1,166.4,-1.94,0.53,93061
-1.3096,-0.7697,11.3593,-0.2571,0.0834,9.8029,-0.496,0.3421,-0.4545,-5.6,-27.9,-44.1,166.23,-1.18,0.83,93163
0.5004,0.1927,9.8545,-0.13,0.16,9.8045,-0.2309,-0.0061,-0.0489,-4.9,-28,-44,168.11,-1.23,0.91,93265
-0.504,1.0139,7.5381,-0.2204,0.1587,9.8029,0.0293,0.1356,-0.0782,-4.2,-27.8,-44.2,170.09,-0.87,1.01,93367
0.0048,1.2653,8.6395,-0.2129,0.2405,9.8014,0.1515,-0.0538,0.0159,-4,-27.8,-44.4,169.61,-1.21,1.25,93469
-0.6345,0.5004,11.7687,-0.2617,0.422,9.7941,0.1894,-0.0244,0.1381,-3.8,-28,-43.9,168.98,-2,1.5,93571
-1.4246,-0.9888,12.8868,-0.1611,0.4864,9.7933,-0.4557,-0.2004,-0.0281,-3.8,-28.6,-43.7,170,-2.84,0.94,93673
0.1293,0.7458,8.1403,-0.027,0.4067,9.7982,-0.2126,-0.2089,0.0305,-4.1,-28.8,-43.6,170.72,-2.3,0.58,93776
-0.6081,0.6835,8.3785,0.018,0.1824,9.8049,-0.2077,0.0782,0.0293,-4.9,-28.7,-43.6,170.1,-1.07,-0.11,93877
-0.316,1.2534,7.8015,-0.0048,0.1965,9.8047,0.1197,0.0171,0.0794,-5.4,-28.3,-43.7,169.61,-0.96,0,93979
-0.5746,0.425,11.9578,-0.011,0.254,9.8034,0.1723,-0.0269,-0.0757,-5.7,-28,-43.7,167.3,-1.48,0.06,94081
1.0463,0.7925,9.8007,-7.00E-04,0.4409,9.7967,0.2492,-0.0855,0.0012,-5.6,-28.1,-43.7,166.67,-2.68,0.18,94183
0.3891,0.3148,8.4288,-0.1822,0.2526,9.8017,0.1649,0.0024,0.0929,-5.1,-28.5,-43.9,167.86,-1.24,1.07,94285
-0.1999,-0.1018,10.6051,-0.1638,0.0414,9.8052,-0.0086,0.1515,-0.0183,-4.8,-28.4,-44,168.27,-0.75,0.91,94387
-0.3831,1.1109,8.1547,-0.2867,0.0873,9.8021,0.0635,0.1258,0.0257,-4.4,-28,-44.5,169.16,-0.51,1.68,94489
-0.583,0.8751,9.5768,-0.4006,0.1233,9.7977,0.0379,0.0733,0.0061,-4.1,-27.7,-44.6,168.37,-0.68,2.1,94591
-0.6788,0.6261,8.7915,-0.5467,0.2131,9.7891,0.5192,0.077,0.1833,-3.4,-27.9,-44.6,168.49,-1.25,3.2,94693
-1.5287,-0.7709,11.048,-0.5251,0.1123,9.7919,0.0281,-0.2028,0.1698,-3.2,-27.9,-44.4,169.04,-1.28,2.91,94795
-0.656,-0.2011,10.0102,-0.2866,-0.0403,9.8024,-0.226,-0.2309,0.1344,-3.3,-27.8,-44.3,170.56,-0.32,2.1,94898
-0.4322,0.3783,8.8155,-0.2446,-0.1364,9.8026,0.0293,0.0281,0.0611,-3.7,-27.6,-44.3,169.98,0.79,1.37,94999
-0.8523,0.9517,9.6582,-0.2918,0.0137,9.8023,0.1857,0.1002,-0.0464,-4.7,-26.9,-44.5,167.13,0.26,1.58,95101
-0.8404,0.4549,10.9738,-0.2943,0.2924,9.7979,0.3592,-0.0941,-0.066,-4.9,-27,-44.4,166.22,-1.05,1.86,95203
-1.1061,-0.267,11.0732,-0.2998,0.4516,9.7917,-0.2016,0.1344,-0.2798,-4.7,-28,-43.7,166.26,-2.64,1.75,95305
0.0275,0.5195,8.9148,-0.3676,0.4245,9.7906,-0.0721,-0.0648,-0.1063,-4.5,-28.7,-43.8,168.22,-2.48,2.15,95407
-0.6464,0.7626,8.2061,-0.3774,0.3569,9.7929,-0.0195,0.0489,-0.0965,-4.2,-28.9,-43.8,168.26,-2.09,2.21,95509
-0.6919,1.409,8.3761,-0.4162,0.3878,9.7901,0.0538,-0.0586,0.0244,-3.8,-28.9,-43.9,167.78,-2.07,2.52,95611
-0.5818,0.7901,10.7739,-0.4127,0.4736,9.7865,0.1319,-0.0757,0.1967,-3.4,-29.1,-43.6,169.66,-2.57,2.51,95713
0.2442,-0.0407,11.4479,-0.2492,0.5722,9.7868,-0.4887,-0.2297,-0.0684,-3.4,-29.7,-43.4,170.31,-3.76,2.18,95816
-0.5052,0.9685,8.1942,-0.2919,0.5214,9.7884,0.2334,0.0049,0.2443,-4,-30,-43.5,169.2,-3.05,1.71,95917
-0.6895,0.5124,8.8837,-0.2057,0.3675,9.7976,-0.2358,-0.1087,-0.1075,-4.4,-30,-43.5,169.85,-2.64,1.35,96019
-0.8882,0.7661,8.5928,-0.1831,0.2855,9.8008,0.1161,0.0635,0.0672,-4.8,-29.6,-43.6,168.79,-1.54,0.93,96122
-1.1049,0.5052,10.7763,-0.1489,0.3093,9.8006,-0.0428,0.0037,-0.055,-5.1,-29.3,-43.7,167.96,-1.9,1.14,96224
-0.1796,0.9577,10.7979,-0.1118,0.4174,9.7971,0.1857,-0.0147,-0.0367,-5.2,-29.1,-43.9,168.55,-2.14,0.7,96325
-0.0431,-0.0622,10.8541,-0.2252,0.2604,9.8006,-0.1625,-0.0709,-0.1857,-5.2,-29.2,-44,167.81,-1.52,1.32,96428
-0.2586,0.0096,9.317,-0.1265,0.0732,9.8056,-0.1588,-0.0806,-0.1466,-5,-29.1,-44,168.55,-0.91,0.95,96529
-0.4884,1.0642,8.6095,-0.1765,0.0476,9.8049,-0.0195,0.1051,-0.0611,-4.6,-28.6,-44.3,168.87,-0.31,0.86,96631
-0.3232,1.1145,8.9052,-0.2204,0.1271,9.8034,-0.0489,0.1087,0.0037,-4.2,-28.4,-44.5,169.89,-0.65,1.18,96733
-0.1006,0.7434,10.9164,-0.388,0.416,9.7901,0.5034,0.3213,0.2993,-4,-28.3,-44.7,168.47,-1.56,1.86,96835
-0.82,-0.4501,12.0776,-0.3029,0.4273,9.7927,-0.3555,-0.336,0.0977,-3.8,-29.2,-44.4,168.8,-2.5,1.77,96937
-0.3232,0.6297,9.104,-0.0681,0.2413,9.8034,-0.1454,-0.1637,0.1845,-4.1,-29.4,-44.2,169.96,-1.92,1.14,97040
-0.2885,0.5363,8.6491,0.0109,-0.0308,9.8066,-0.0684,-0.0623,-0.0501,-5,-29.2,-44,170.05,-0.03,0.11,97142
-0.4357,0.6871,8.7783,-0.0644,-0.0075,9.8064,0.088,0.1491,0.0073,-5.7,-28.5,-44.2,168.05,0.36,-0.02,97243
-0.7458,0.152,11.4766,-0.1234,0.1725,9.8044,0.1759,-0.0623,-0.0953,-6,-28,-44.2,166.5,-0.64,0.79,97345
0.5794,0.9062,10.0317,-0.0616,0.4223,9.7974,0.0305,-0.1539,-0.1429,-5.8,-28.1,-43.9,165.9,-2.06,0.83,97447
-0.1652,-0.2203,10.6674,-0.0661,0.2078,9.8042,-0.358,-0.0134,-0.2602,-5.4,-28.9,-43.5,169.33,-1.21,0.39,97549
-0.3531,0.48,9.0728,-0.0971,0.0836,9.8058,-0.3763,0.011,-0.1051,-5.1,-29.1,-43.3,169.27,-0.49,0.57,97651
-0.8978,0.7949,8.7712,-0.2052,0.0428,9.8044,-0.0501,0.1124,0.0513,-4.9,-28.8,-43.8,168.59,-0.38,1.04,97753
-0.5555,0.9086,10.0497,-0.328,0.1714,9.7997,0.1038,0.066,0.0757,-4.5,-28.4,-44.1,169.03,-0.75,1.71,97855
-0.5459,1.0343,10.1382,-0.3429,0.4179,9.7917,0.3824,0.066,0.2211,-4.3,-28.5,-44.1,168.21,-1.87,2.01,97957
-0.4274,0.0658,9.232,-0.2386,0.2275,9.8011,0.0464,0.1222,0.1686,-4.4,-28.9,-43.7,169.73,-1.33,1.39,98059
-0.7254,0.4154,8.157,-0.0758,0.1609,9.805,-0.2529,-0.0757,0.0941,-4.7,-29,-43.3,168.45,-1.51,0.93,98161
-0.8859,0.7566,9.1231,-0.0348,0.0638,9.8064,-0.0733,-0.0257,-0.0037,-5.4,-28.8,-43.4,169.86,-0.33,0.19,98263
-0.6381,1.1708,9.177,-0.082,0.2037,9.8042,0.0819,0.1185,-0.0599,-5.8,-28.6,-43.4,167.6,-0.91,0.3,98366
-1.3827,0.9493,11.151,-0.1212,0.3571,9.7994,0.259,0.0745,-0.0476,-5.9,-28.8,-43.4,166.6,-2.09,0.71,98468
0.6823,-0.176,11.2539,-0.0545,0.3973,9.7984,-0.1735,-0.1405,-0.0721,-5.9,-29,-43.1,166.75,-2.87,0.42,98570
0.5327,0.2047,8.6874,-0.0571,0.1908,9.8046,-0.0257,-0.1161,0.0843,-5.6,-29.2,-42.5,167.18,-1.39,0.5,98672
-0.0108,0.4812,8.6119,0.004,0.0709,9.8064,0.0183,0.0037,-0.0403,-5.7,-29,-42.4,168.04,-0.36,0.12,98774
-0.2322,0.9553,8.3043,-0.0416,0.1225,9.8058,0.0489,0.1503,-0.0269,-5.7,-28.5,-42.7,167.56,-0.5,0.13,98876
-0.7901,0.3615,11.5101,-0.2188,0.1938,9.8023,0.0721,0.1955,0.0269,-5.6,-28.4,-43,165.62,-1.13,1.28,98978
-0.2933,0.2538,10.1706,-0.3736,0.5263,9.7854,0.1295,0.0183,0.2517,-5.2,-28.9,-42.4,166.13,-3.08,2.19,99079
-0.9325,0.1173,9.9551,-0.2448,0.2714,9.7998,-0.1319,-0.4801,0.2199,-5,-29.1,-41.9,166.71,-1.83,2.09,99181
-0.4465,-0.0646,9.2943,-0.046,0.0594,9.8064,-0.3005,-0.0745,0.0232,-5.5,-29,-41.8,169.63,-0.87,0.26,99283
-0.4561,1.2665,8.2791,-0.0033,0.0673,9.8064,0.1344,0.0244,0.1222,-6.4,-28.4,-42.1,167.76,-0.39,0.02,99385
-0.5088,0.8559,10.7236,-0.0571,0.1939,9.8046,0.1527,0.0428,-0.1234,-7,-28,-42.2,165.25,-1.03,0.23,99487
-0.7003,0.8248,11.7232,-0.1208,0.4445,9.7958,0.2944,0.0672,-0.2175,-7.2,-28,-42.1,164.49,-2.12,0.46,99589
-0.3938,-0.5662,10.8421,-0.2089,0.4097,9.7959,-0.2541,0.1161,-0.4081,-6.6,-28.8,-41.4,163.69,-2.97,1.19,99692
-0.0371,0.3783,8.4108,-0.2135,0.3089,9.7995,-0.182,-0.0037,-0.1112,-5.7,-29.2,-41.3,166.03,-1.8,1.25,99793
-0.2646,1.1732,7.5621,-0.2572,0.1794,9.8016,-0.0367,0.1417,-0.1588,-5.2,-29.1,-41.1,168.12,-0.96,1.34,99895
-0.6967,0.9613,9.1063,-0.3785,0.2218,9.7968,0.1429,0.0562,-0.0183,-4.5,-28.6,-41.6,168.67,-1.3,2.21,99997
-0.9756,0.5004,10.8421,-0.5351,0.3202,9.7868,0.1784,-0.0098,0.2272,-4,-28.4,-41.8,167.15,-1.7,2.88,100100
-1.2462,-0.844,15.1337,-0.266,0.2064,9.8009,-0.4203,-0.1539,0.0159,-3.9,-28.6,-41.9,168.58,-2.09,2.11,100201
-0.5016,0.8847,7.604,-0.2542,0.2719,9.7996,0.1979,-0.0623,0.2053,-4.2,-28.5,-42.1,168.4,-1.61,2.06,100304
-0.8452,0.5423,8.0014,-0.1952,0.0914,9.8043,-0.0599,0.099,0.1002,-5.1,-28.2,-42.2,168.07,-0.53,1.14,100405
-0.3268,1.1744,7.6327,-0.3594,0.1351,9.7991,0.1087,0.1063,0.1087,-5.5,-27.6,-42.2,166.99,-0.56,1.88,100508
-1.0427,0.5866,9.8306,-0.4755,0.139,9.7941,0.0037,0.1625,-0.0794,-5.6,-27.4,-41.8,163.32,-0.73,2.65,100610
0.4417,0.3579,10.6147,-0.3947,0.2497,9.7955,0.1735,-0.0232,-0.055,-5.3,-27.4,-42,165.37,-1.38,2.44,100711
-0.2035,-0.3567,11.3318,-0.4309,-0.0073,9.7972,-0.1271,-0.1258,-0.1417,-5,-27.4,-42.2,165.42,-0.19,2.72,100813
-0.067,0.3759,8.6921,-0.3058,-0.0929,9.8014,-0.0428,-0.0428,-0.099,-4.7,-27,-42.8,166.98,0.54,1.79,100916
-0.996,0.5088,8.3905,-0.293,-0.1593,9.801,-0.1246,0.0171,-0.1857,-4.6,-26.6,-43,167.19,0.72,1.68,101017
-0.7219,0.3184,10.0257,-0.3913,-0.1936,9.7969,-0.0806,0.1967,-0.0122,-4.3,-26.2,-43.4,168.48,1.05,1.95,101119
-0.735,0.8404,12.2212,-0.4282,-0.0773,9.797,0.3775,-0.0538,0.3091,-4.2,-26,-43.7,167.28,0.85,2.63,101221
-2.15,-1.3659,14.5556,-0.1887,-0.1026,9.8043,-0.6243,-0.5424,-0.1454,-4.3,-26,-44.3,169.62,0.6,1.1,101323
-0.5016,0.5519,7.5896,0.0363,-0.275,9.8027,-0.066,-0.5571,0.1197,-4.7,-25.8,-44.2,167.55,1.43,1.28,101425
-0.571,0.158,8.3761,0.0708,-0.3699,9.7994,0.2211,-0.0342,0.2566,-5.7,-25.3,-44.2,168.14,2.51,-0.45,101528
-0.3065,0.9014,6.839,0.0127,-0.1037,9.8061,0.3775,0.1478,0.2566,-6.3,-24.9,-44.2,167.17,1.15,-0.14,101630
-0.4453,-0.0431,12.0368,0.0342,0.0724,9.8063,0.1613,-0.011,-0.1002,-7,-25.2,-43.9,164.85,-0.03,-0.31,101731
0.68,-0.1568,10.1215,-0.102,0.3254,9.8007,0.0929,0.2138,-0.3958,-6.8,-26.3,-43.3,163.96,-1.58,0.17,101833
0.3807,0.0802,8.9172,-0.2157,0.1473,9.8032,0.0012,-0.2492,-0.0061,-6.2,-27.1,-43.1,164.92,-0.83,1.48,101935
-0.5291,0.4992,8.2289,-0.0805,0.0061,9.8063,-0.215,-0.0342,0.0073,-5.4,-27.5,-43.2,168.78,-0.04,0.47,102037
-0.7039,1.0618,8.029,-0.1561,-0.0338,9.8054,-0.0489,0,0.0648,-5.3,-27.2,-43.5,168.16,0.12,0.91,102139
-0.8775,0.4944,11.145,-0.1801,-0.0798,9.8047,-0.0892,0.1087,-0.0293,-5.5,-26.8,-43.7,168.02,0.47,1.05,102241
-0.3591,0.6979,10.489,-0.3407,0.0458,9.8006,0.2798,0.1332,0.1955,-5.4,-26.6,-43.6,167.22,0.38,1.55,102343
-0.7051,-0.6895,12.5588,-0.3391,-0.1119,9.8001,-0.3115,0.0843,0.0696,-5.3,-26.6,-43.7,166.17,-0.31,2.07,102446
0.3496,0.7362,7.8721,-0.2333,0.0497,9.8037,0.0489,-0.0623,0.0305,-5.2,-26.7,-43.5,166.85,0.13,1.77,102548
-0.7207,0.0407,8.7269,-0.3159,-0.0515,9.8014,-0.1368,0.1307,-0.0745,-5.4,-26.8,-43.5,167.03,0.22,1.68,102649
-0.826,0.5734,9.4535,-0.3485,0.0623,9.8003,0.0599,0.022,-0.055,-5.6,-26.8,-43.7,164.23,-0.31,2.03,102751
-0.4357,0.5195,9.815,-0.3393,0.1479,9.7997,0.314,0.1307,-0.0342,-5.6,-27.2,-43.7,164.07,-0.86,1.98,102854
-0.079,-0.565,11.1163,-0.4548,0.1,9.7956,-0.6072,0.38,-0.4178,-5.4,-27.4,-43.6,165.28,-1.48,2.34,102955
0.3472,0.1724,8.2253,-0.6148,-0.1948,9.7854,0.0953,-0.099,0.0599,-4.6,-27.1,-43.9,164.46,1.14,3.59,103057
-0.1784,0.5363,8.0325,-0.4163,-0.2914,9.7935,0.0415,-0.0831,-0.1197,-4.2,-26.8,-44.5,168.07,1.75,2.59,103160
-0.5986,0.8571,9.0453,-0.389,-0.325,9.7935,0.0147,-0.0916,-0.2089,-3.7,-26.3,-45,168.11,1.9,2.27,103261
-1.324,-0.8763,11.746,-0.3206,-0.3378,9.7956,-0.0819,-0.11,-0.1527,-3.7,-26.3,-44.7,168.46,1.83,2.04,103363
-0.6213,0.6129,9.4427,-0.2951,-0.0489,9.8021,0.1539,-0.1381,0.2419,-3.7,-26.4,-44.2,168.13,0.53,2.02,103465
-0.8859,-0.0431,11.0241,-0.0907,-0.2621,9.8027,0.011,-0.1845,0.2602,-4.1,-26.5,-44.1,170.6,1.28,0.6,103568
-0.5183,0.4992,8.4922,0.1685,-0.1622,9.8039,0.0977,-0.314,0.0867,-5.3,-26.6,-44.3,171.3,0.95,-0.98,103670
-0.2394,0.8727,8.6431,-0.0851,-0.1689,9.8048,0.0831,0.1991,0.0525,-6.3,-26.4,-44.4,166.58,0.99,0.5,103771
-1.2438,0.407,9.9012,-0.2891,0.0955,9.8019,0.1808,0.215,-0.1515,-6.4,-26.5,-43.9,164.63,-0.25,1.43,103874
-0.5399,0.2239,8.7819,-0.4047,0.3957,9.7903,0.11,0.0354,-0.1991,-5.5,-27.3,-43.7,165.36,-1.89,2.18,103976
-1.2773,-1.6137,13.1837,-0.4328,0.0077,9.7971,-0.7233,0.0977,-0.4374,-4.8,-28,-43.5,166.23,-1.19,2.2,104077
0.1987,0.413,8.8573,-0.4395,-0.0795,9.7965,-0.336,-0.1148,-0.1429,-4,-28.2,-43.9,167.57,0.13,2.86,104179
-0.7638,0.9254,9.5062,-0.4872,-0.4383,9.7847,-0.1234,0.1442,-0.0342,-3.6,-27.3,-44.6,168.13,2.24,2.6,104282
-0.844,0.8344,8.9627,-0.5709,-0.3239,9.7847,0.1723,0.0538,0.0403,-3.2,-26.5,-45,168.55,2.21,3.33,104383
-0.3639,0.0515,11.0038,-0.3555,-0.0734,9.7999,0.3274,-0.2896,0.2138,-3.2,-26.3,-45,169.53,0.83,2.45,104486
1.4808,0.3603,9.5529,0.1466,0.2548,9.8022,-0.3787,-0.4117,0.0806,-3.6,-26.7,-44.6,170.83,-1.3,0.25,104587
-0.3519,0.5231,8.2073,0.2329,0.2036,9.8018,0.2419,0.033,0.3738,-5.1,-27.7,-44.3,171.57,-0.65,-1.2,104689
-1.3443,-0.0479,10.2197,-0.2118,-0.2821,9.8003,-0.7428,0.8039,0.055,-6.5,-28,-44.2,168.73,0.46,-0.45,104791
-0.984,0.6045,8.5772,-0.4593,-0.1583,9.7946,0.3128,0.1344,0.0843,-6.5,-27.5,-44.5,164.2,1.53,2.57,104893
-1.1085,0.4717,11.0828,-0.6843,-0.0524,9.7826,0.2944,0.0232,-0.0489,-5.7,-26.9,-44.9,161.48,0.31,4,104995
0.3017,0.5363,10.6159,-0.6346,-0.091,9.7857,-0.3274,-0.1698,-0.0965,-4.9,-26.9,-44.8,163.1,-0.43,3.97,105097
0.6668,-0.3244,9.408,-0.4643,-0.3032,9.791,0.628,-0.5718,0.2957,-4.5,-26.9,-44.8,167.2,2.33,3.25,105199
0.8619,0.0658,8.0002,-0.1642,-0.1937,9.8034,0.0464,-0.0269,-0.0024,-5.2,-26.7,-44.9,168.34,1.13,0.96,105302
-0.3388,0.516,7.7644,-0.2659,-0.1453,9.802,0.0855,0.1955,-0.1026,-5.6,-26.5,-45,165.45,1.03,1.22,105403
-0.65,0.2705,9.1135,-0.4289,-0.1664,9.7959,-0.0623,0.1161,-0.0232,-5.9,-26.6,-45.1,164.25,0.95,2.32,105505
-2.071,-0.2729,10.4878,-0.3113,-0.0233,9.8017,0.5534,-0.4826,0.4007,-5.3,-26.6,-45.1,165.96,1.05,2.5,105607
-0.2394,-1.3072,14.6717,-0.0107,-0.3997,9.7985,-0.8564,-0.3848,0.1833,-5.5,-26.8,-45.2,168.23,-0.52,0.69,105709
-0.3579,0.2119,8.6586,0.1899,-0.1239,9.804,0.0623,-0.4264,0.1649,-6.6,-26.5,-45.6,165.6,1.12,-0.12,105812
-0.9313,0.2885,9.2201,0.0063,-0.3308,9.8011,-0.0709,0.1588,0.0257,-8.1,-26.2,-45.4,164.26,1.83,-0.34,105914
-0.6536,0.6333,8.3773,-0.191,-0.2028,9.8027,-0.0819,0.0892,0.0171,-8.2,-26.1,-45.3,162.21,1.35,0.87,106015
-0.0682,0.316,11.1438,-0.3141,-0.2757,9.7977,0.0024,0.2065,0.1185,-8,-25.9,-45.1,160.89,1.61,1.84,106117
0.255,-0.5375,11.0624,-0.3944,-0.2229,9.7962,-0.4948,0.11,-0.4288,-7.6,-26.1,-45.2,159.94,0.88,2.23,106219
0.9553,0.2538,6.7241,-0.229,-0.0975,9.8035,0.1051,-0.3457,-0.0134,-6.9,-26.1,-45.2,162.69,1.46,1.86,106321
-0.1628,-0.401,8.2636,-0.0832,-0.2174,9.8039,-0.1014,-0.0354,-0.204,-6.8,-26.4,-45.1,164.62,1.09,0.49,106424
0.0275,1.1492,7.6291,-0.1316,-0.2053,9.8036,0.1026,-0.0892,-0.0965,-6.8,-26.4,-45,164.17,1.52,0.9,106525
-0.978,-0.152,11.5412,-0.1237,-0.2747,9.802,0.055,0.0037,0.0501,-6.9,-26.4,-44.8,164.47,1.5,0.7,106627
0.2394,0.3005,9.7576,-0.0675,0.025,9.8064,0.4459,-0.0586,0.2663,-7,-26.5,-44.6,164.59,0.79,0.43,106729
-0.8475,0.5088,8.5629,-0.098,-0.0047,9.8062,0.1845,0.1588,0.1527,-7.2,-27,-44.6,164.54,0.44,0.72,106832
-0.644,-0.1065,9.7923,0.0415,-0.0456,9.8065,-0.1246,0.0782,0.0476,-7.5,-27.2,-44.5,165.97,0.02,-0.33,106933
-0.559,1.2737,7.8973,0.0017,0.1177,9.8059,0.2688,-0.1466,0.0183,-7.9,-27.3,-44.5,163.2,-0.69,-0.01,107036
-0.4681,1.1696,8.9938,-0.0131,0.2863,9.8025,0.1124,0.1649,-0.0782,-8.2,-27.6,-44.2,163.77,-1.44,-0.23,107137
-0.0168,0.6057,9.4176,-0.1029,0.4081,9.7976,0.1564,0.2065,-0.1075,-8,-28.2,-43.7,162.07,-2.39,0.6,107239
-1.6364,-1.4808,14.4215,-0.3832,-0.0787,9.7988,0.3824,0.3225,0.1087,-7.5,-28.5,-43.7,163.68,0.03,1.57,107341
-0.1628,-0.2119,9.8665,-0.4153,-0.0017,9.7979,-0.3274,-0.1136,-0.2028,-6.5,-28.3,-44.1,163.97,-0.4,2.55,107443
-0.9098,0.5255,8.3558,-0.4311,-0.0798,9.7968,0.0293,0.011,-0.0049,-5.7,-27.9,-44.5,164.5,0.48,2.44,107545
-0.5698,0.8954,9.6355,-0.4554,0.0561,9.7959,0.1222,0.1759,0.1038,-5.2,-27.7,-44.6,166.19,-0.05,2.39,107648
-0.3855,1.3252,12.4056,-0.4641,0.2235,9.7931,0.1319,-0.066,0.1637,-5.2,-27.9,-44.6,165.28,-0.92,2.77,107750
-0.9984,-0.0455,10.2113,-0.5014,0.3679,9.7869,-0.2138,-0.1197,0.022,-5.3,-28.6,-44.3,165.16,-2.15,2.93,107852
-0.5483,0.0024,9.8976,-0.1951,0.3064,9.7999,-0.303,-0.1881,-0.0745,-5.6,-28.9,-44,164.6,-2.24,1.97,107954
-0.7135,0.8188,7.0809,-0.2332,0.1855,9.8021,0.0098,0.1222,0.0098,-6,-28.9,-44,166.1,-1.09,1.27,108055
-0.5459,1.3072,8.1894,-0.2595,0.1848,9.8015,0.1173,0.1002,-0.0244,-6.6,-28.4,-44.1,163.47,-1.05,1.39,108157
-0.9517,0.65,11.2516,-0.237,0.2745,9.7999,0.2615,-0.0623,-0.0806,-6.7,-28.3,-44.2,163.24,-1.6,1.39,108259
0.0646,-0.8511,11.9219,-0.1527,0.4489,9.7952,-0.5412,0.1478,-0.5082,-6.5,-28.7,-43.8,165.33,-2.76,1.34,108362
0.346,0.2897,7.3394,-0.2314,0.3319,9.7983,0.2908,0.0012,0.171,-6,-29.2,-43.8,165.66,-1.59,1.44,108463
0.3627,0.5614,8.8274,-0.1899,0.1253,9.804,-0.0819,0.022,0.0244,-5.8,-29.2,-43.8,166.37,-1.01,1.1,108565
-0.4154,0.9278,8.0302,-0.2451,0.0412,9.8035,-0.0122,0.0709,-0.0061,-5.7,-28.6,-44.4,166.16,-0.24,1.43,108667
-0.8404,0.5088,9.7983,-0.3297,-0.0661,9.8009,-0.16,0.0941,-0.0501,-5.7,-28.3,-44.6,165.28,0,1.73,108769
0.0527,1.1073,9.1949,-0.3507,0.2521,9.7971,0.5913,0.1735,0.3677,-5.5,-27.9,-44.7,166.75,-0.54,1.9,108871
-0.5207,0.7015,8.6084,-0.339,0.1334,9.7999,0.1979,0.0721,0.3641,-5.6,-28,-44.4,164.66,-0.78,1.98,108973
-0.0754,0.2263,8.9471,-0.0484,0.2449,9.8035,-0.27,-0.0342,0.099,-5.9,-28.2,-44.1,165.88,-1.49,0.98,109075
-0.6859,1.0391,8.406,-0.0375,0.1228,9.8058,0.0501,0.0269,0.0428,-6.8,-28.3,-43.8,165.54,-0.67,0.11,109178
-0.3699,1.2653,9.839,-0.0241,0.2917,9.8023,0.1051,-0.1442,-0.0819,-7.5,-28.4,-43.7,164.86,-1.47,0.35,109279
-0.6488,0.8595,11.1163,-0.0033,0.3855,9.7991,0.1222,-0.121,-0.1344,-7.7,-28.6,-43.8,163.75,-2.02,0,109381
-0.1903,-0.48,12.4666,-0.0818,0.0321,9.8063,-0.8968,0.2138,-0.3995,-7.2,-28.8,-43.9,166.49,-0.11,-0.07,109484
0.8667,0.2478,9.4978,-0.0482,0.2113,9.8043,-0.3213,-0.1564,-0.1393,-6.9,-28.7,-44.2,164.96,-1.74,0.56,109585
-0.4178,0.7602,7.8027,-0.1165,0.17,9.8045,0.1051,0.0183,-0.044,-6.5,-28.4,-44,166.53,-0.99,0.68,109687
-0.1484,1.3312,8.4228,-0.1338,0.2509,9.8025,0.0794,0.0391,0.0525,-6.2,-28.5,-44,166.36,-1.33,0.71,109789
-0.6907,0.2969,12.815,-0.2317,0.2554,9.8006,-0.0635,0.0806,0.0831,-5.9,-28.7,-43.9,166.07,-1.25,1.24,109891
-1.1899,-0.2382,11.8489,-0.3162,0.3485,9.7954,-0.4166,0.0024,0.1112,-5.6,-29.1,-43.8,164.87,-2.04,1.85,109993
-0.814,0.2466,9.493,-0.1659,0.2618,9.8018,-0.1784,-0.3079,0.1295,-5.8,-29.1,-43.8,165.32,-1.53,1.68,110095
-0.1999,0.8236,8.3426,-0.0138,0.1164,9.8059,-0.193,0.0269,-0.0195,-6.5,-28.9,-44,167.98,-0.68,0.08,110197
-0.3843,1.3204,8.3749,0.037,0.1114,9.8059,0.1222,-0.1051,-0.0476,-7,-28.5,-44.7,165.84,-0.45,-0.03,110300
-0.8942,0.7051,11.1546,0.043,0.229,9.8039,0.3873,0.1429,-0.1063,-7.5,-28.3,-44.6,166.33,-0.92,-0.47,110401
0.2514,0.1556,11.4239,-0.0363,0.3542,9.8002,-0.1063,0.011,-0.2248,-7.2,-28.6,-44.1,165.35,-2.07,0.21,110503
-0.3376,-0.5387,11.0696,-0.1197,0.1252,9.8051,0.1283,-0.1161,-0.0831,-6.9,-28.8,-43.7,164.99,-0.45,0.89,110605
0.1269,0.4812,8.5964,-0.0794,0.1814,9.8047,-0.0208,-0.1014,-0.0843,-6.2,-28.9,-43.8,166.83,-0.98,0.8,110707
-0.5327,0.8954,7.774,-0.0726,0.2057,9.8042,0.0867,-0.0257,-0.1332,-5.8,-28.8,-43.9,167.18,-1.01,0.55,110810
-0.8344,0.3771,9.8497,-0.0649,0.2699,9.8027,0.011,0.055,-0.0562,-5.6,-29,-43.5,167.48,-1.54,0.24,110911
0.6692,0.5183,10.0772,-0.11,0.4263,9.7968,0.1698,-0.0159,0.2676,-5.5,-29.4,-43.5,168.57,-2.49,0.64,111013
-0.2897,0.1856,9.985,-0.0777,0.2528,9.8031,0.0843,-0.2236,0.2358,-5.8,-29.5,-43.7,167.45,-1.58,0.24,111115
0.0646,0.5734,9.1459,0.0815,0.2474,9.8032,-0.1686,-0.1075,0.1087,-6.5,-29.5,-44,168.58,-1.45,-0.48,111217
-0.4621,0.6081,9.1806,0.1441,0.0695,9.8053,0.0293,-0.0794,0.0611,-7,-29.1,-44.2,167.39,-0.34,-0.74,111319
-0.4681,0.8583,9.007,0.1107,0.2386,9.8031,0.1625,-0.0782,-0.1332,-7.5,-28.8,-44.4,166.89,-1.39,-0.65,111422
-0.7877,0.2143,10.9176,0.1685,0.3543,9.7988,0.1808,0.0782,-0.0843,-7.6,-28.9,-43.7,165.19,-2.07,-0.98,111524
-0.5818,-0.668,11.2551,-0.0359,0.1923,9.8047,-0.5962,0.3299,-0.3201,-7.4,-29.6,-43.2,166.54,-2.19,-0.29,111625
0.8368,0.4489,8.1714,-0.0302,-0.0044,9.8066,-0.2224,0.1246,-0.1405,-7,-29.5,-43.6,166.24,-0.17,0.09,111728
-0.1568,0.6919,7.8266,-0.1298,-0.1826,9.8041,-0.1442,0.1148,-0.1381,-6.5,-29.1,-43.9,167.86,0.88,0.5,111830
-0.6728,0.4549,9.6486,-0.0828,-0.1804,9.8046,0.1637,-0.1796,0.0086,-5.8,-28.1,-44,167.53,1.05,0.48,111932
-0.7649,0.012,11.1271,-0.2257,-0.1253,9.8033,0.3848,0.0611,0.369,-5.5,-27.8,-43.9,168.57,1.13,1.09,112033
0.4142,0.0646,11.8046,-0.0619,0.1755,9.8049,-0.1674,-0.8076,0.1576,-5.8,-28,-43.5,165.41,-1.08,1.44,112136
-0.0431,0.0742,7.7548,0.5591,0.2571,9.7873,0.3543,-0.5229,0.4753,-6.9,-28.3,-43.1,169.51,-1.6,-2.71,112237
0.3376,0.255,7.9224,0.783,0.0605,9.7752,-0.1857,-0.0183,0.1552,-9.4,-28.4,-42.5,168.55,-0.35,-4.58,112340
0.0395,0.8643,7.9176,0.5398,-0.1413,9.7908,0.1405,0.2285,0.0012,-10.8,-27.9,-42.8,163.94,1.12,-3.57,112442
-0.346,-0.067,12.396,0.219,-0.2562,9.8009,-0.3103,0.4056,-0.1991,-11.4,-27.1,-43,160.36,1.5,-1.28,112543
-0.2705,0.1927,9.7444,-0.0647,-0.133,9.8055,0.1772,0.2053,0.0195,-10.8,-26.5,-43.5,158.51,1.39,-0.47,112646
0.1879,-0.0479,10.9547,-0.061,-0.4364,9.7967,0.3751,0.0892,0.1087,-9.5,-26.1,-43.9,161.63,2.55,0.36,112747
-0.6045,-0.4752,10.1754,-0.1289,-0.4708,9.7945,-0.3604,0.0147,-0.3531,-8.7,-25.7,-44.2,160.98,1.94,0.61,112849
-0.5243,0.0168,8.4455,-0.2092,-0.423,9.7953,0.0428,0.1234,-0.0733,-7.8,-25.5,-44.4,162.1,2.66,0.94,112951
-0.4741,0.1317,9.3996,-0.1617,-0.2793,9.8013,0.0635,0.0794,0.066,-7.3,-25.5,-44.2,163.65,1.78,0.95,113053
-0.6967,-0.0048,12.2404,-0.1027,-0.0794,9.8058,0.3995,0.1918,0.3641,-6.9,-25.8,-44.2,164.38,1.06,0.65,113155
-0.7027,-0.0455,11.9411,-0.0658,-0.0861,9.8061,-0.3274,-0.2285,0.1356,-7.3,-26.1,-44,164.54,0.5,0.38,113258
-0.182,0.5136,9.0573,0.002,-0.2107,9.8044,-0.1869,-0.2334,0.0623,-7.5,-26.1,-44.2,164,0.78,0.82,113359
-0.9529,-0.0539,9.8569,-0.1296,-0.5278,9.7916,0.0819,-0.0183,-0.0183,-7.9,-25.5,-44.4,162.82,2.74,0.48,113461
-0.5387,0.4657,8.1032,-0.2225,-0.2479,9.801,0.3677,0.2053,-0.0012,-7.7,-25,-44.9,160.95,1.45,1.3,113563
-0.8332,-0.3017,11.2132,-0.2295,-0.0342,9.8039,0.182,0.0122,-0.2199,-7.5,-25.1,-44.8,162.69,0.77,1.25,113665
0.3089,-0.6823,10.0533,-0.2718,0.0264,9.8028,-0.325,0.0929,-0.3641,-6.7,-25.7,-44.4,162.17,-0.51,1.62,113768
0.146,-0.0359,8.9615,-0.2353,-0.2482,9.8007,-0.2065,-0.1173,-0.2162,-6.1,-26.1,-44.3,164.8,1.37,1.76,113869
-0.3352,-0.3077,9.6055,0.0092,-0.5514,9.7911,-0.3836,-0.2834,-0.1943,-5.5,-25.6,-44.6,170.13,3.22,-0.05,113972
-1.1875,0.4262,8.6143,-0.2143,-0.6799,9.7807,0.1417,0.4826,0.1833,-5.3,-24.5,-45.2,168.99,4.26,0.39,114073
-0.8104,0.0084,10.8374,-0.3638,-0.526,9.7858,0.4093,0.1527,0.3152,-5.2,-24.1,-45.3,166.18,3.6,2.02,114176
-0.0778,0.4094,9.1267,-0.4354,-0.1328,9.7961,0.4557,0.0037,0.4337,-4.9,-24.5,-45.5,164.13,0.78,2.54,114277
-0.9002,-0.826,11.1821,-0.1706,-0.046,9.8051,-0.0501,-0.1784,0.2028,-5.1,-25.2,-45.3,166.52,0.18,1.31,114379
-0.2538,0.1628,7.926,0.0313,-0.0045,9.8066,-0.2822,0.0623,-0.121,-6.3,-26,-44.5,167.31,0.03,-0.18,114481
-0.419,0.4669,8.9711,0.0487,-0.2167,9.8041,-0.1283,-0.1161,-0.0098,-7,-26.1,-44.2,165.52,1.12,-0.08,114584
0.0168,0.7099,8.7017,0.0562,-0.1032,9.8059,0.0464,-0.0061,0.0391,-7.4,-26,-44,165.81,0.97,-0.31,114686
