ACCELEROMETER X (m/s²),ACCELEROMETER Y (m/s²),ACCELEROMETER Z (m/s²),GRAVITY X (m/s²),GRAVITY Y (m/s²),GRAVITY Z (m/s²),GYROSCOPE X (rad/s),GYROSCOPE Y (rad/s),GYROSCOPE Z (rad/s),MAGNETIC FIELD X (μT),MAGNETIC FIELD Y (μT),MAGNETIC FIELD Z (μT),ORIENTATION Z (azimuth °),ORIENTATION X (pitch °),ORIENTATION Y (roll °),LOCATION Latitude : ,LOCATION Longitude : ,LOCATION Altitude ( m),LOCATION Altitude-google ( m),LOCATION Speed ( Kmh),LOCATION Accuracy ( m),LOCATION ORIENTATION (°),Satellites in range,Time since start in ms ,YYYY-MO-DD HH-MI-SS_SSS
-0.6943,0.3747,9.4583,-0.4078,0.1069,9.7976,0.0073,0.0757,0.0134,-1.2,20.7,-44.2,7.5,-0.62,2.38,36.81407,-119.74717,262.3,336.9380175725133,0.72,51.612904,98.17,16 / 17,42,2015-10-30 10:10:35:936
-0.6476,0.2071,9.8797,-0.4038,0.0983,9.7978,-0.0049,0.0061,0.0024,-1.3,20.8,-44.2,7.47,-0.57,2.36,36.81407,-119.74717,262.3,336.9380175725133,0.72,51.612904,98.17,16 / 17,144,2015-10-30 10:10:36:038
-0.7901,0.2011,9.6235,-0.4288,0.1177,9.7966,0.0024,-0.0318,0.055,-1.2,20.9,-44.0,7.77,-0.68,2.52,36.81407,-119.74717,262.3,336.9380175725133,0.72,51.612904,98.17,16 / 17,245,2015-10-30 10:10:36:139
-0.5375,0.3053,9.6379,-0.4252,0.1325,9.7965,0.0147,0.0232,0.0195,-1.2,21.0,-43.9,7.67,-0.77,2.49,36.81407,-119.74717,262.3,336.9380175725133,0.72,51.612904,98.17,16 / 17,348,2015-10-30 10:10:36:242
-0.5938,0.2813,9.8533,-0.4241,0.1474,9.7964,0.0073,-0.0305,0.0037,-1.1,21.0,-43.6,7.67,-0.86,2.5,36.81407,-119.74717,262.3,336.9380175725133,0.72,51.612904,98.17,16 / 17,450,2015-10-30 10:10:36:344
-0.6273,0.1604,9.8031,-0.4017,0.1593,9.7971,0.0391,0.0,-0.0159,-1.1,20.9,-43.5,7.25,-0.93,2.35,36.81407,-119.74717,262.3,336.9380175725133,0.72,51.612904,98.17,16 / 17,552,2015-10-30 10:10:36:446
-0.5698,0.3065,9.4415,-0.4067,0.1927,9.7963,0.0171,-0.0073,-0.011,-1.1,20.8,-43.6,7.36,-1.13,2.38,36.81407,-119.74717,262.3,336.9380175725133,0.72,51.612904,98.17,16 / 17,654,2015-10-30 10:10:36:548
-0.4501,0.3077,9.7145,-0.3759,0.1742,9.7979,-0.0391,-0.0195,-0.0232,-1.2,20.7,-44.2,7.07,-1.06,2.22,36.81407,-119.74717,262.3,336.9380175725133,0.72,51.612904,98.17,16 / 17,755,2015-10-30 10:10:36:649
-0.6117,0.2143,9.8916,-0.3616,0.1369,9.799,-0.0171,-0.0195,-0.022,-1.2,20.7,-44.4,6.94,-0.85,2.13,36.81407,-119.74717,262.3,336.9380175725133,0.72,51.612904,98.17,16 / 17,857,2015-10-30 10:10:36:751
-0.583,0.2502,9.7648,-0.3653,0.1416,9.7988,0.0049,-0.0159,0.0012,-1.4,20.8,-44.6,7.06,-0.81,2.14,36.81407,-119.74717,262.3,336.9380175725133,0.72,51.612904,98.17,16 / 17,960,2015-10-30 10:10:36:854
-0.4944,0.3208,9.6845,-0.3801,0.1555,9.798,0.0098,0.0244,0.0049,-1.6,20.9,-44.4,9.69,-0.91,2.22,36.81407,-119.74717,262.3,336.9380175725133,0.72,51.612904,98.17,16 / 17,1062,2015-10-30 10:10:36:956
-0.504,0.3077,9.8916,-0.3816,0.1486,9.7981,-0.0159,-0.0037,-0.0171,-1.7,20.9,-44.5,9.71,-0.89,2.23,36.81407,-119.74717,262.3,336.9380175725133,0.72,51.612904,98.17,16 / 17,1163,2015-10-30 10:10:37:057
-0.6404,0.176,10.0185,-0.3896,0.1513,9.7977,0.0794,0.0037,0.0037,-1.6,20.8,-44.4,9.81,-0.88,2.28,36.81407,-119.74717,262.3,336.9380175725133,0.72,51.612904,98.17,16 / 17,1265,2015-10-30 10:10:37:159
-0.6907,0.2909,9.681,-0.4179,0.2266,9.7951,0.0428,0.0257,-0.0122,-1.7,20.8,-44.5,9.99,-1.22,2.43,36.81407,-119.74717,262.3,336.9380175725133,0.72,51.612904,98.17,16 / 17,1367,2015-10-30 10:10:37:261
-0.6261,0.3603,9.3529,-0.4394,0.2595,9.7934,0.0171,-0.0134,0.0012,-1.6,20.7,-44.3,10.19,-1.49,2.58,36.81407,-119.74717,262.3,336.9380175725133,0.72,51.612904,98.17,16 / 17,1469,2015-10-30 10:10:37:363
-0.65,0.2634,9.6534,-0.4504,0.2362,9.7935,-0.0073,0.022,-0.0086,-1.6,20.6,-44.4,10.33,-1.38,2.63,36.81407,-119.74717,262.3,336.9380175725133,0.72,51.612904,98.17,16 / 17,1571,2015-10-30 10:10:37:465
-0.7566,0.2526,9.7025,-0.4974,0.2293,9.7913,-0.0012,0.0122,-0.0257,-1.5,20.5,-44.4,8.1,-1.34,2.78,36.81407,-119.74717,262.3,336.9380175725133,0.72,51.612904,98.17,16 / 17,1674,2015-10-30 10:10:37:568
-0.7338,0.3795,9.8857,-0.5243,0.207,9.7904,-0.0525,0.0171,-0.0049,-1.3,20.5,-44.5,8.69,-1.21,3.07,36.81407,-119.74717,262.3,336.9380175725133,0.72,51.612904,98.17,16 / 17,1775,2015-10-30 10:10:37:669
-0.6009,0.4178,9.9323,-0.5215,0.2104,9.7905,0.011,0.0122,-0.0183,-1.2,20.5,-44.6,8.79,-1.21,3.05,36.81407,-119.74717,262.3,336.9380175725133,0.72,51.612904,98.17,16 / 17,1877,2015-10-30 10:10:37:771
-0.8009,0.334,9.5493,-0.5803,0.2612,9.786,0.044,0.1014,0.0086,-1.1,20.6,-44.4,9.14,-1.4,3.33,36.81407,-119.74717,262.3,336.9380175725133,0.72,51.612904,98.17,16 / 17,1979,2015-10-30 10:10:37:873
-0.5974,0.407,9.3937,-0.5726,0.309,9.785,0.0244,0.011,0.0305,-1.2,20.6,-44.6,9.2,-1.81,3.35,36.81407,-119.74717,262.3,336.9380175725133,0.72,51.612904,98.17,16 / 17,2081,2015-10-30 10:10:37:975
-0.5447,0.4226,9.4739,-0.5441,0.3177,9.7864,-0.0525,-0.0513,-0.011,-1.2,20.5,-44.6,8.86,-1.86,3.18,36.81407,-119.74717,262.3,336.9380175725133,0.72,51.612904,98.17,16 / 17,2183,2015-10-30 10:10:38:077
-0.7242,0.3915,9.8857,-0.5381,0.2264,9.7893,-0.0709,-0.0281,0.0,-1.3,20.6,-44.6,8.95,-1.32,3.15,36.81407,-119.74717,262.3,336.9380175725133,0.72,51.612904,98.17,16 / 17,2286,2015-10-30 10:10:38:180
-0.6165,0.4393,10.003,-0.5348,0.1801,9.7904,-0.0538,0.0061,0.0012,-1.3,20.8,-44.3,8.84,-1.15,3.13,36.81407,-119.74717,262.3,336.9380175725133,0.72,51.612904,98.17,16 / 17,2387,2015-10-30 10:10:38:281
-0.5459,0.2239,9.8378,-0.49,0.1803,9.7927,0.0073,-0.0342,0.0,-1.4,20.9,-44.3,8.34,-1.05,2.86,36.81407,-119.74717,262.3,336.9380175725133,0.72,51.612904,98.17,16 / 17,2489,2015-10-30 10:10:38:383
-0.4322,0.6716,9.2213,-0.5086,0.2033,9.7913,-0.077,0.0049,-0.0489,-1.3,20.9,-44.5,8.48,-1.21,2.96,36.81407,-119.74717,262.3,336.9380175725133,0.72,51.612904,98.17,16 / 17,2592,2015-10-30 10:10:38:486
-0.8739,0.7302,9.742,-0.5214,0.1522,9.7916,0.0489,0.0073,0.0501,-1.5,20.9,-44.4,8.75,-0.89,3.05,36.81407,-119.74717,262.3,336.9380175725133,0.72,51.612904,98.17,16 / 17,2693,2015-10-30 10:10:38:587
-1.6041,0.5806,9.4834,-0.6479,0.2126,9.7829,0.0305,0.1735,0.2248,-1.3,20.9,-44.3,9.5,-1.13,3.46,36.81407,-119.74717,262.3,336.9380175725133,0.72,51.612904,98.17,16 / 17,2796,2015-10-30 10:10:38:690
-3.535,0.1963,8.9411,-0.7939,0.2298,9.7718,-0.077,0.1246,0.843,-0.8,20.9,-44.0,11.7,-1.34,4.64,36.81407,-119.74717,262.3,336.9380175725133,0.72,51.612904,98.17,16 / 17,2897,2015-10-30 10:10:38:791
-4.5262,-0.7853,9.5421,-0.9288,0.2333,9.7598,-0.1112,0.0489,1.3109,0.3,20.9,-44.1,10.76,-1.27,5.45,36.81407,-119.74717,262.3,336.9380175725133,0.72,51.612904,98.17,16 / 17,3000,2015-10-30 10:10:38:894
-3.5949,-2.1284,10.902,-0.5445,0.5147,9.778,0.1234,-0.1698,2.2345,2.7,19.9,-43.9,359.71,-2.41,3.76,36.81407,-119.74717,262.3,336.9380175725133,0.72,51.612904,98.17,16 / 17,3102,2015-10-30 10:10:38:996
-1.3024,-1.403,9.8881,-0.3715,0.8117,9.7659,0.1906,0.1686,2.5461,8.9,12.6,-45.3,336.45,-4.75,2.18,36.81407,-119.74717,262.3,336.9380175725133,0.72,51.612904,98.17,16 / 17,3204,2015-10-30 10:10:39:098
-0.0646,-0.8523,9.839,-0.3772,0.9427,9.7539,0.0501,0.2456,1.989,13.1,8.0,-43.4,316.98,-5.52,2.21,36.81407,-119.74717,262.3,336.9380175725133,0.72,51.612904,98.17,16 / 17,3305,2015-10-30 10:10:39:199
0.1257,-0.2047,9.7588,-0.4815,0.9873,9.7449,-0.0281,0.507,1.6054,15.3,3.4,-43.9,300.29,-5.78,2.83,36.81407,-119.74717,262.3,336.9380175725133,0.72,51.612904,98.17,16 / 17,3408,2015-10-30 10:10:39:302
0.99,0.3124,8.995,-0.6595,1.0222,9.7309,-0.0525,0.2529,1.091,15.9,1.6,-44.3,297.21,-5.98,3.88,36.81407,-119.74717,262.3,336.9380175725133,0.72,51.612904,98.17,16 / 17,3510,2015-10-30 10:10:39:404
1.1241,0.7793,8.9735,-0.682,1.0082,9.7308,0.055,0.1026,0.7257,16.8,-0.2,-43.7,288.46,-5.9,4.01,36.81407,-119.74717,262.3,336.9380175725133,0.72,51.612904,98.17,16 / 17,3612,2015-10-30 10:10:39:506
-0.1281,-0.1927,9.4942,-0.5987,0.9857,9.7386,-0.1051,-0.0244,0.4459,17.5,-2.1,-43.1,280.06,-6.04,3.95,36.81407,-119.74717,262.3,336.9380175725133,0.72,51.612904,98.17,17 / 17,3713,2015-10-30 10:10:39:607
0.996,0.5578,4.2808,-0.5747,1.0517,9.7331,0.022,0.0452,0.8577,17.9,-4.2,-42.8,272.75,-6.16,3.38,36.81407,-119.74717,262.3,336.9380175725133,0.72,51.612904,98.17,17 / 17,3815,2015-10-30 10:10:39:709
1.7777,0.6201,13.4578,-0.1952,0.1964,9.8027,-0.5388,-0.2224,0.5742,17.6,-5.2,-42.8,259.48,-2.45,1.47,36.81407,-119.74717,262.3,336.9380175725133,0.72,51.612904,98.17,17 / 17,3918,2015-10-30 10:10:39:812
1.239,1.2546,9.3398,-0.1074,0.0762,9.8058,0.0941,0.3079,0.0965,16.6,-5.7,-43.4,251.08,-0.45,0.63,36.81407,-119.74717,262.3,336.9380175725133,0.72,51.612904,98.17,17 / 17,4020,2015-10-30 10:10:39:914
0.0527,0.5531,9.074,-0.235,0.1212,9.8031,-0.0464,0.0134,-0.2187,16.3,-5.8,-43.5,249.94,-0.71,1.37,36.81407,-119.74717,262.3,336.9380175725133,0.72,51.612904,98.17,17 / 17,4121,2015-10-30 10:10:40:015
-0.3915,0.6464,10.7643,-0.1767,-0.2804,9.801,-0.4728,-0.259,-0.0428,16.1,-5.2,-43.5,249.24,0.85,1.47,36.81407,-119.74717,262.3,336.9380175725133,0.72,51.612904,98.17,17 / 17,4223,2015-10-30 10:10:40:117
-0.2095,0.8523,13.4794,0.0215,-0.5094,9.7934,0.2651,-0.2737,0.0562,16.1,-4.2,-43.7,248.69,2.98,-0.13,36.81407,-119.74717,262.3,336.9380175725133,0.72,51.612904,98.17,17 / 17,4326,2015-10-30 10:10:40:220
0.0443,1.251,9.0237,0.0528,-0.0873,9.8061,0.5376,0.1943,0.0929,15.7,-3.4,-44.0,258.2,0.51,-0.31,36.81407,-119.74717,262.3,336.9380175725133,0.72,51.612904,98.17,17 / 17,4427,2015-10-30 10:10:40:321
0.3029,1.5802,7.9966,0.1429,0.7655,9.7757,0.7379,-0.0929,-0.0183,15.4,-3.9,-44.2,264.74,-3.34,-0.81,36.81407,-119.74717,262.3,336.9380175725133,0.72,51.612904,98.17,17 / 17,4529,2015-10-30 10:10:40:423
-0.0048,1.968,7.6674,0.1335,0.9998,9.7546,0.2761,0.16,0.0342,15.1,-6.1,-44.0,264.49,-5.85,-0.78,36.81407,-119.74717,262.3,336.9380175725133,0.72,51.612904,98.17,17 / 17,4632,2015-10-30 10:10:40:526
0.158,2.3487,6.0166,0.0523,1.1952,9.7334,0.1539,0.0122,0.0721,15.2,-7.8,-44.1,259.81,-6.82,-0.22,36.81407,-119.74717,262.3,336.9380175725133,0.72,51.612904,98.17,17 / 17,4733,2015-10-30 10:10:40:627
-0.0431,1.1887,8.9998,0.145,0.8901,9.7651,-0.7428,-0.2077,-0.0819,15.1,-9.0,-43.9,252.32,-5.21,-0.85,36.81407,-119.74717,262.3,336.9380175725133,0.72,51.612904,98.17,17 / 17,4835,2015-10-30 10:10:40:729
0.2322,0.6261,18.7993,0.3905,0.0145,9.7989,-0.5388,-0.6109,0.1955,15.0,-8.4,-44.1,244.64,-0.08,-2.28,36.81407,-119.74717,262.3,336.9380175725133,0.72,51.612904,98.17,17 / 17,4938,2015-10-30 10:10:40:832
0.3603,0.6991,10.477,0.4976,0.0106,9.794,0.9896,-0.1429,0.2065,14.0,-6.3,-44.4,247.13,1.28,-3.29,36.81407,-119.74717,262.3,336.9380175725133,0.72,51.612904,98.17,17 / 17,5039,2015-10-30 10:10:40:933
-0.4262,0.5471,6.5218,0.439,0.6392,9.7759,0.4386,0.2981,-0.193,13.3,-5.8,-45.1,258.34,-3.74,-2.57,36.81407,-119.74717,262.3,336.9380175725133,0.72,51.612904,98.17,17 / 17,5141,2015-10-30 10:10:41:035
-1.0391,1.3156,5.3953,0.268,1.1591,9.7342,0.325,0.2505,-0.1295,13.4,-7.0,-45.3,263.28,-6.79,-1.58,36.81407,-119.74717,262.3,336.9380175725133,0.72,51.612904,98.17,17 / 17,5244,2015-10-30 10:10:41:138
-0.577,1.5598,8.4563,0.2984,1.1237,9.7375,-0.4887,0.0098,-0.1356,14.1,-9.3,-44.7,255.99,-6.58,-1.75,36.81407,-119.74717,262.3,336.9380175725133,0.72,51.612904,98.17,17 / 17,5346,2015-10-30 10:10:41:240
0.3663,1.7609,10.2879,0.3256,0.6243,9.7813,-0.4924,-0.0892,-0.1344,14.5,-9.5,-44.4,250.46,-4.2,-1.72,36.81407,-119.74717,262.3,336.9380175725133,0.72,51.612904,98.17,17 / 17,5448,2015-10-30 10:10:41:342
1.1049,-1.4653,13.2555,0.4461,0.1868,9.7947,-0.551,-0.1503,-0.347,14.3,-7.7,-44.3,245.83,-1.09,-2.61,36.81407,-119.74717,262.3,336.9380175725133,0.72,51.612904,98.17,17 / 17,5549,2015-10-30 10:10:41:443
0.3555,-0.3879,9.9168,0.2816,-0.3387,9.7968,0.3384,0.5253,0.2028,14.0,-5.5,-44.6,246.9,2.43,-2.71,36.814034,-119.74732,285.4,336.9380175725133,0.0,19.35484,,17 / 17,5651,2015-10-30 10:10:41:545
0.0048,0.7829,7.0749,0.1261,0.175,9.8043,0.5229,-0.1038,0.1307,14.4,-3.5,-44.7,258.82,-0.13,-0.82,36.814034,-119.74732,285.4,336.9380175725133,0.0,19.35484,,17 / 17,5753,2015-10-30 10:10:41:647
-0.0323,1.0511,7.756,0.1183,0.5864,9.7884,0.4728,-0.1637,0.0489,14.8,-3.5,-44.5,266.38,-2.65,-0.35,36.814034,-119.74732,285.4,336.9380175725133,0.0,19.35484,,17 / 17,5856,2015-10-30 10:10:41:750
-0.4944,1.0307,9.4786,0.0325,0.7515,9.7778,0.121,0.2639,0.088,15.4,-5.2,-44.4,263.91,-4.4,-0.19,36.814034,-119.74732,285.4,336.9380175725133,0.0,19.35484,,17 / 17,5958,2015-10-30 10:10:41:852
-0.9625,0.8703,11.6729,0.0209,0.8535,9.7694,-0.4056,-0.0354,0.3738,15.6,-6.7,-44.3,258.94,-4.99,-0.12,36.814034,-119.74732,285.4,336.9380175725133,0.0,19.35484,,17 / 17,6059,2015-10-30 10:10:41:953
-1.2833,-0.6584,12.4331,0.1751,0.4127,9.7964,-0.3531,-0.0012,-0.0562,15.4,-6.9,-44.5,252.76,-2.66,-1.32,36.814034,-119.74732,285.4,336.9380175725133,0.0,19.35484,,17 / 17,6161,2015-10-30 10:10:42:055
-0.8691,0.3089,8.3139,0.1044,0.491,9.7938,-0.1674,0.2749,-0.0195,15.4,-6.8,-44.1,252.77,-2.87,-0.61,36.814034,-119.74732,285.4,336.9380175725133,0.0,19.35484,,17 / 17,6263,2015-10-30 10:10:42:157
-0.2059,1.5538,7.4436,0.0805,0.5957,9.7882,0.2553,0.0672,0.0,15.4,-6.7,-44.0,254.29,-3.48,-0.47,36.814034,-119.74732,285.4,336.9380175725133,0.0,19.35484,,17 / 17,6365,2015-10-30 10:10:42:259
-0.6129,1.6759,8.5461,0.1133,0.8441,9.7696,0.2187,-0.16,-0.11,15.6,-7.1,-44.1,259.02,-4.94,-0.66,36.814034,-119.74732,285.4,336.9380175725133,0.0,19.35484,,17 / 17,6468,2015-10-30 10:10:42:362
-0.9996,1.0139,11.8561,0.2096,0.8789,9.7649,-0.1234,-0.3018,-0.2175,15.6,-7.5,-44.0,259.99,-5.29,-0.83,36.814034,-119.74732,285.4,336.9380175725133,0.0,19.35484,,17 / 17,6569,2015-10-30 10:10:42:463
-0.6823,-0.8619,14.6501,0.3218,0.5286,9.7871,-0.931,0.1014,-0.3164,15.2,-7.6,-44.0,256.04,-5.04,-2.29,36.814034,-119.74732,285.4,336.9380175725133,0.0,19.35484,,17 / 17,6671,2015-10-30 10:10:42:565
0.1305,0.6213,9.3817,0.2846,0.4731,9.7911,0.2786,0.0794,0.2896,14.8,-6.7,-44.1,253.27,-2.77,-1.66,36.814034,-119.74732,285.4,336.9380175725133,0.0,19.35484,,17 / 17,6774,2015-10-30 10:10:42:668
0.1999,1.5335,5.63,0.0765,0.8502,9.7694,0.441,0.2004,0.2492,14.7,-6.3,-44.4,259.96,-4.22,-0.75,36.814034,-119.74732,285.4,336.9380175725133,0.0,19.35484,,17 / 17,6876,2015-10-30 10:10:42:770
0.0646,1.579,5.1643,0.0268,1.1839,9.7349,0.3274,-0.0354,0.1637,15.1,-6.7,-44.4,261.75,-6.23,-0.14,36.814034,-119.74732,285.4,336.9380175725133,0.0,19.35484,,17 / 17,6978,2015-10-30 10:10:42:872
0.2179,0.8152,12.2631,0.0829,1.1496,9.7387,-0.3457,-0.0147,0.2101,15.6,-8.7,-44.2,256.95,-6.73,-0.49,36.814034,-119.74732,285.4,336.9380175725133,0.0,19.35484,,17 / 17,7079,2015-10-30 10:10:42:973
0.4166,-0.7446,18.8412,0.154,0.7801,9.7744,-0.4581,-0.336,0.1222,15.8,-9.8,-43.8,248.76,-4.56,-0.9,36.814034,-119.74732,285.4,336.9380175725133,0.0,19.35484,,17 / 17,7182,2015-10-30 10:10:43:076
0.5914,0.668,12.0392,0.4631,0.5696,9.7791,0.5693,-0.2847,0.3506,15.3,-9.6,-44.0,246.35,-3.33,-2.71,36.814034,-119.74732,285.4,336.9380175725133,0.0,19.35484,,17 / 17,7283,2015-10-30 10:10:43:177
0.1401,1.2989,7.6375,0.4987,0.9612,9.7467,0.4007,-0.1307,-0.0183,14.5,-9.5,-44.1,254.66,-5.62,-2.93,36.814034,-119.74732,285.4,336.9380175725133,0.0,19.35484,,17 / 17,7386,2015-10-30 10:10:43:280
-0.4585,1.3958,5.2457,0.5354,1.3822,9.694,0.5657,0.1222,-0.16,14.0,-10.2,-44.4,256.9,-8.1,-3.16,36.814034,-119.74732,285.4,336.9380175725133,0.0,19.35484,,17 / 17,7488,2015-10-30 10:10:43:382
-0.4621,1.8555,4.7836,0.4701,1.7207,9.6431,-0.0745,-0.0623,-0.3201,14.0,-11.8,-43.9,255.33,-10.11,-2.79,36.814034,-119.74732,285.4,336.9380175725133,0.0,19.35484,,17 / 17,7590,2015-10-30 10:10:43:484
1.1528,1.5826,13.1262,0.5261,1.1547,9.7242,-0.3531,-0.1173,0.0037,14.2,-12.0,-43.8,247.33,-6.76,-3.1,36.814034,-119.74732,285.4,336.9380175725133,0.0,19.35484,,17 / 17,7692,2015-10-30 10:10:43:586
-0.9325,-1.3336,22.1308,0.7569,0.187,9.7756,-1.6542,-0.1857,-0.6952,14.1,-10.8,-43.7,242.11,-2.33,-4.59,36.814034,-119.74732,285.4,336.9380175725133,0.0,19.35484,,17 / 17,7794,2015-10-30 10:10:43:688
1.0211,1.0582,9.4511,0.5766,0.7096,9.7639,0.4472,0.3824,0.0391,13.7,-8.4,-44.0,252.21,-3.37,-4.0,36.814034,-119.74732,285.4,336.9380175725133,0.0,19.35484,,17 / 17,7896,2015-10-30 10:10:43:790
-0.0742,1.0594,4.4448,0.3581,1.3463,9.7072,0.5608,0.3152,-0.0696,13.8,-7.4,-43.9,266.45,-7.89,-2.11,36.814034,-119.74732,285.4,336.9380175725133,0.0,19.35484,,17 / 17,7997,2015-10-30 10:10:43:891
-0.0156,1.33,4.2449,0.2989,1.7882,9.6376,-0.0403,-0.1087,0.2101,14.7,-9.2,-43.3,266.16,-10.51,-1.78,36.814034,-119.74732,285.4,336.9380175725133,0.0,19.35484,,17 / 17,8100,2015-10-30 10:10:43:994
0.0766,0.7973,9.0321,0.371,1.5912,9.6696,-0.5705,-0.0684,0.1381,15.1,-10.5,-43.1,259.82,-9.34,-2.2,36.814034,-119.74732,285.4,336.9380175725133,0.0,19.35484,,17 / 17,8202,2015-10-30 10:10:44:096
2.2434,-0.5363,18.008,0.8082,0.5899,9.7555,-1.3647,-0.6939,-0.121,15.0,-11.1,-43.2,250.13,-6.33,-3.26,36.814034,-119.74732,285.4,336.9380175725133,0.0,19.35484,,17 / 17,8303,2015-10-30 10:10:44:197
1.2294,0.8667,10.1263,0.9424,0.5209,9.7474,0.7257,-0.1747,0.2468,13.9,-9.5,-44.1,249.67,-3.04,-5.52,36.814034,-119.74732,285.4,336.9380175725133,0.0,19.35484,,17 / 17,8405,2015-10-30 10:10:44:299
0.7338,0.4142,9.8557,1.0761,1.0434,9.6914,0.4081,-0.0415,-0.1503,13.1,-8.9,-44.3,254.21,-5.33,-6.38,36.814034,-119.74732,285.4,336.9380175725133,0.0,19.35484,,17 / 17,8508,2015-10-30 10:10:44:402
0.6393,1.0738,4.7489,0.9908,1.7102,9.6054,0.722,-0.0782,-0.314,12.4,-9.8,-44.7,262.24,-10.04,-5.89,36.814034,-119.74732,285.4,336.9380175725133,0.0,19.35484,,17 / 17,8609,2015-10-30 10:10:44:503
0.3759,0.9409,4.4568,1.1266,2.2733,9.4728,0.0269,-0.3067,-0.7563,12.4,-12.0,-44.7,264.55,-13.4,-6.78,36.814034,-119.74732,285.4,336.9380175725133,0.0,19.35484,,17 / 17,8712,2015-10-30 10:10:44:606
-0.3424,0.5052,12.5779,1.1926,2.1042,9.5037,-0.4264,-0.2016,-0.8283,12.5,-12.7,-44.7,260.77,-12.98,-7.13,36.814034,-119.74732,285.4,336.9380175725133,0.0,19.35484,,17 / 17,8813,2015-10-30 10:10:44:707
0.3795,-0.3699,16.0747,0.8041,1.6488,9.6335,-1.1472,0.5718,-1.3573,12.4,-11.9,-44.8,259.33,-11.41,-6.31,36.814034,-119.74732,285.4,336.9380175725133,0.0,19.35484,,17 / 17,8915,2015-10-30 10:10:44:809
0.7685,1.1887,7.7907,0.2619,1.5677,9.677,-0.0733,0.5388,-0.8393,14.3,-7.3,-45.0,270.83,-9.2,-1.55,36.814034,-119.74732,285.4,336.9380175725133,0.0,19.35484,,17 / 17,9018,2015-10-30 10:10:44:912
1.1983,0.9134,8.1666,-0.1073,1.39,9.707,-0.2101,0.1185,-0.9444,15.6,-4.1,-44.6,279.74,-8.51,0.27,36.814034,-119.74732,285.4,336.9380175725133,0.0,19.35484,,17 / 17,9120,2015-10-30 10:10:45:014
1.9788,0.5578,11.3713,-0.1732,0.7362,9.7774,-0.5266,-0.1478,-1.9988,15.8,0.4,-44.8,286.02,-5.58,0.86,36.814034,-119.74732,285.4,336.9380175725133,0.0,19.35484,,17 / 17,9222,2015-10-30 10:10:45:116
1.8268,0.6883,12.3756,-0.0448,0.4801,9.7948,0.4105,-0.3067,-2.1808,12.4,10.5,-44.5,318.09,-2.81,0.26,36.814034,-119.74732,285.4,336.9380175725133,0.0,19.35484,,17 / 17,9323,2015-10-30 10:10:45:217
1.0738,0.1879,8.7017,-0.0182,1.0414,9.7512,0.7721,-0.0098,-2.3127,10.3,12.5,-44.2,328.86,-5.0,-0.18,36.814034,-119.74732,285.4,336.9380175725133,0.0,19.35484,,17 / 17,9425,2015-10-30 10:10:45:319
-0.1484,1.0606,6.5469,-0.1612,1.6043,9.6732,0.5412,-0.1686,-1.7874,7.1,13.5,-45.1,343.57,-9.42,0.96,36.814034,-119.74732,285.4,336.9380175725133,0.0,19.35484,,17 / 17,9527,2015-10-30 10:10:45:421
-2.3331,1.4305,5.685,-0.3646,1.8751,9.6188,-0.0501,-0.0134,-1.3879,5.6,14.0,-45.6,348.55,-11.18,1.75,36.814034,-119.74732,285.4,336.9380175725133,0.0,19.35484,,17 / 17,9629,2015-10-30 10:10:45:523
-1.0511,0.8894,9.2739,-0.133,1.4345,9.7002,-1.0959,-0.4618,-0.3042,2.7,15.0,-46.2,353.73,-8.41,0.79,36.814034,-119.74732,285.4,336.9380175725133,0.0,19.35484,,17 / 17,9731,2015-10-30 10:10:45:625
0.4489,-0.0646,17.9972,0.3093,0.3749,9.7946,-1.1118,-0.744,0.2358,-0.1,17.8,-45.9,359.99,-3.86,0.0,36.814034,-119.74732,285.4,336.9380175725133,0.0,19.35484,,17 / 17,9834,2015-10-30 10:10:45:728
0.8368,0.5974,11.8728,0.7148,0.3723,9.7735,0.6524,-0.1735,0.2199,-2.4,20.5,-44.4,357.65,-0.86,-3.76,36.814034,-119.74732,285.4,336.9380175725133,0.0,19.35484,,17 / 17,9935,2015-10-30 10:10:45:829
-0.6728,0.3124,7.7895,0.473,1.137,9.729,0.6096,0.2578,-0.1759,-2.7,20.9,-44.1,359.84,-4.7,-3.99,36.814034,-119.74732,285.4,336.9380175725133,0.0,19.35484,,17 / 17,10040,2015-10-30 10:10:45:934
-0.6117,1.1827,5.8754,0.3649,1.6684,9.6568,0.5681,0.0929,-0.2553,-3.4,20.1,-44.7,2.45,-9.01,-2.35,36.814034,-119.74732,285.4,336.9380175725133,0.0,19.35484,,17 / 17,10139,2015-10-30 10:10:46:033
-0.5686,1.0223,9.3553,0.3477,1.7292,9.6467,-0.226,-0.0391,-0.3494,-3.4,17.7,-46.4,2.97,-10.16,-2.06,36.814034,-119.74732,285.4,336.9380175725133,0.0,19.35484,,17 / 17,10241,2015-10-30 10:10:46:135
1.3264,1.3336,13.7595,0.4084,1.3128,9.7098,-0.2908,-0.259,-0.011,-3.8,17.2,-46.9,4.99,-7.69,-2.41,36.814034,-119.74732,285.4,336.9380175725133,0.0,19.35484,,17 / 17,10344,2015-10-30 10:10:46:238
0.0587,0.5471,12.9574,0.4092,0.9392,9.753,0.3763,0.0941,-0.0562,-4.5,18.2,-46.2,5.29,-5.5,-2.4,36.814034,-119.74732,285.4,336.9380175725133,0.0,19.35484,,17 / 17,10445,2015-10-30 10:10:46:339
0.3508,0.8308,8.4563,0.2358,1.3416,9.7116,0.3714,0.2114,-0.0867,-4.9,18.9,-45.7,8.31,-7.41,-1.71,36.814034,-119.74732,285.4,336.9380175725133,0.0,19.35484,,17 / 17,10548,2015-10-30 10:10:46:442
-0.1508,1.1313,5.7473,0.0409,1.6132,9.673,0.3482,0.1625,-0.0721,-4.9,19.0,-45.5,10.42,-9.47,-0.24,36.814034,-119.74732,285.4,336.9380175725133,0.0,19.35484,,17 / 17,10649,2015-10-30 10:10:46:543
-0.1161,1.3096,5.3175,0.0944,1.8631,9.6276,-0.0648,-0.2187,-0.0452,-4.5,18.1,-46.2,8.26,-10.9,-0.21,36.814034,-119.74732,285.4,336.9380175725133,0.0,19.35484,,17 / 17,10751,2015-10-30 10:10:46:645
-0.6033,1.0894,10.0149,0.2291,1.5423,9.6819,-0.4044,-0.0953,-0.0525,-4.4,17.1,-46.9,6.81,-9.05,-1.36,36.814034,-119.74732,285.4,336.9380175725133,0.0,19.35484,,17 / 17,10853,2015-10-30 10:10:46:747
0.6512,0.4872,15.6341,0.4801,1.1594,9.726,-0.4728,-0.3775,0.3189,-4.7,17.1,-47.2,7.61,-7.57,-2.33,36.814034,-119.74732,285.4,336.9380175725133,0.0,19.35484,,17 / 17,10955,2015-10-30 10:10:46:849
0.8128,0.0694,9.9024,0.7857,1.4171,9.6719,1.438,0.204,0.4887,-5.7,18.4,-46.2,4.94,-6.1,-4.99,36.814034,-119.74732,285.4,336.9380175725133,0.0,19.35484,,17 / 17,11057,2015-10-30 10:10:46:951
1.148,0.5758,7.8374,0.6777,2.1366,9.5471,0.5669,0.1124,-0.1271,-6.0,18.0,-46.4,4.66,-11.87,-4.7,36.814034,-119.74732,285.4,336.9380175725133,0.0,19.35484,,17 / 17,11159,2015-10-30 10:10:47:053
0.6752,1.4976,6.1088,0.4565,2.7154,9.4122,0.4581,-0.0293,-0.2761,-6.1,14.6,-48.5,7.38,-15.44,-2.93,36.814034,-119.74732,285.4,336.9380175725133,0.0,19.35484,,17 / 17,11262,2015-10-30 10:10:47:156
-0.3807,1.8675,6.4392,0.4767,2.9101,9.3528,0.0892,-0.3629,-0.5486,-5.8,13.4,-48.6,7.99,-17.01,-2.61,36.814034,-119.74732,285.4,336.9380175725133,0.0,19.35484,,17 / 17,11364,2015-10-30 10:10:47:258
0.0299,2.2075,10.9271,0.59,2.8307,9.3707,-0.1991,0.0953,-0.9578,-6.6,11.4,-49.2,8.91,-17.25,-3.56,36.814034,-119.74732,285.4,336.9380175725133,0.0,19.35484,,17 / 17,11466,2015-10-30 10:10:47:360
-0.3005,2.2075,9.4583,0.2734,2.8743,9.372,0.2321,0.0122,-0.7123,-7.8,11.0,-49.1,13.73,-16.7,-2.29,36.814034,-119.74732,285.4,336.9380175725133,0.0,19.35484,,17 / 17,11567,2015-10-30 10:10:47:461
0.0419,0.2993,11.8369,-0.0709,2.3309,9.5253,0.5009,-0.0794,-0.766,-9.6,11.3,-48.6,23.52,-14.65,0.03,36.814034,-119.74732,285.4,336.9380175725133,0.0,19.35484,,17 / 17,11670,2015-10-30 10:10:47:564
0.8763,0.2969,8.6467,-0.3913,1.8741,9.618,-0.2651,0.0037,-0.5339,-10.5,12.6,-48.1,28.66,-11.02,2.33,36.814034,-119.74732,285.4,336.9380175725133,0.0,19.35484,,17 / 17,11772,2015-10-30 10:10:47:666
2.1536,0.5148,9.5696,-0.4454,1.4818,9.6838,-0.5143,-0.0489,-0.8149,-10.8,13.8,-47.5,31.46,-9.7,2.73,36.814034,-119.74732,285.4,336.9380175725133,0.0,19.35484,,17 / 17,11873,2015-10-30 10:10:47:767
3.0562,0.3436,12.396,-0.3638,1.0215,9.7465,-0.2309,-0.3531,-1.7507,-12.0,15.7,-46.5,33.57,-5.98,2.14,36.814034,-119.74732,285.4,336.9380175725133,0.0,19.35484,,17 / 17,11976,2015-10-30 10:10:47:870
1.3719,-0.6895,10.999,-0.2121,1.0426,9.7488,0.1295,-0.3115,-2.3518,-15.8,15.6,-45.3,39.92,-5.91,1.48,36.814034,-119.74732,285.4,336.9380175725133,0.0,19.35484,,17 / 17,12077,2015-10-30 10:10:47:971
0.4381,-0.2346,10.1574,-0.1934,1.1745,9.7341,0.1381,-0.2382,-2.3726,-23.2,10.9,-44.5,56.65,-6.38,1.24,36.814034,-119.74732,285.4,336.9380175725133,0.0,19.35484,,17 / 17,12179,2015-10-30 10:10:48:073
-1.0116,0.8882,7.1587,-0.3005,1.5787,9.6741,0.452,-0.0953,-1.7006,-26.3,4.7,-46.9,65.74,-9.26,1.78,36.814034,-119.74732,285.4,336.9380175725133,0.0,19.35484,,17 / 17,12281,2015-10-30 10:10:48:175
-1.4222,1.6664,6.1723,-0.5662,1.8414,9.6156,0.1539,0.2334,-1.0311,-27.0,1.6,-46.8,70.58,-10.82,3.37,36.814034,-119.74732,285.4,336.9380175725133,0.0,19.35484,,17 / 17,12384,2015-10-30 10:10:48:278
-1.1277,2.1141,4.6495,-0.774,1.851,9.5992,-0.2468,-0.2993,-0.6463,-27.1,0.2,-46.3,74.92,-10.88,4.61,36.814034,-119.74732,285.4,336.9380175725133,0.0,19.35484,,17 / 17,12485,2015-10-30 10:10:48:379
-1.5993,0.7159,10.4938,-0.3731,1.0977,9.7379,-0.8882,-0.4484,-0.4826,-27.3,-1.1,-46.3,80.26,-7.83,3.18,36.814034,-119.74732,285.4,336.9380175725133,0.0,19.35484,,17 / 17,12588,2015-10-30 10:10:48:482
-0.9361,-1.1408,19.1105,0.4707,-0.0522,9.7952,-0.9041,0.0195,-0.1784,-29.1,0.0,-44.6,90.53,0.31,-2.75,36.814034,-119.74732,285.4,336.9380175725133,0.0,19.35484,,17 / 17,12689,2015-10-30 10:10:48:583
0.7183,1.0187,10.574,0.5799,0.6164,9.7701,0.8625,0.3213,-0.0525,-31.3,1.0,-43.6,84.66,-2.06,-3.44,36.814034,-119.74732,285.4,336.9380175725133,0.0,19.35484,,17 / 17,12791,2015-10-30 10:10:48:685
-0.4453,1.1349,5.867,0.278,1.6427,9.6641,0.8833,0.1588,-0.1772,-31.9,0.7,-42.5,76.75,-8.2,-2.2,36.814034,-119.74732,285.4,336.9380175725133,0.0,19.35484,,17 / 17,12894,2015-10-30 10:10:48:788
-0.6476,1.6281,4.6639,0.0371,2.0805,9.5834,0.325,0.1894,-0.3152,-31.3,-2.1,-42.6,77.35,-11.72,-0.64,36.814034,-119.74732,285.4,336.9380175725133,0.0,19.35484,,17 / 17,12995,2015-10-30 10:10:48:889
-0.5962,1.3024,8.3414,0.1704,1.9209,9.6152,-0.6451,-0.3042,-0.3677,-30.8,-4.6,-43.0,83.16,-11.3,-1.02,36.814034,-119.74732,285.4,336.9380175725133,0.0,19.35484,,17 / 17,13098,2015-10-30 10:10:48:992
0.8248,0.583,11.1223,0.4722,1.1575,9.7266,-0.7624,-0.3824,-0.1332,-30.6,-5.7,-43.3,89.08,-8.39,-1.82,36.814034,-119.74732,285.4,336.9380175725133,0.0,19.35484,,17 / 17,13200,2015-10-30 10:10:49:094
0.9673,0.1293,15.5503,0.6723,0.302,9.7789,-0.4252,0.1943,0.1796,-31.7,-4.4,-42.7,95.36,-1.63,-4.05,36.814034,-119.74732,285.4,336.9380175725133,0.0,19.35484,,17 / 17,13302,2015-10-30 10:10:49:196
1.5251,1.0379,8.8681,0.6653,0.8975,9.7428,0.6096,0.2297,0.1222,-32.7,-2.2,-41.6,86.1,-5.25,-3.91,36.814034,-119.74732,285.4,336.9380175725133,0.0,19.35484,,17 / 17,13403,2015-10-30 10:10:49:297
0.4848,1.2246,5.7341,0.3333,1.5307,9.6807,0.6817,0.0831,-0.0538,-32.9,-1.9,-41.5,83.19,-7.74,-2.47,36.814034,-119.74732,285.4,336.9380175725133,0.0,19.35484,,17 / 17,13506,2015-10-30 10:10:49:400
0.3304,1.731,4.7896,0.1904,2.0305,9.5923,0.3482,0.1869,0.0147,-32.2,-3.5,-42.2,79.66,-11.64,-1.25,36.814034,-119.74732,285.4,336.9380175725133,0.0,19.35484,,17 / 17,13608,2015-10-30 10:10:49:502
-0.3436,1.2474,7.7273,0.2476,1.7944,9.6379,-0.4655,-0.1173,-0.0819,-31.2,-5.9,-42.9,84.55,-11.56,-1.22,36.814034,-119.74732,285.4,336.9380175725133,0.0,19.35484,,17 / 17,13709,2015-10-30 10:10:49:603
0.2622,-0.3603,14.2168,0.4817,0.9594,9.7477,-1.0495,-0.6548,0.0012,-31.0,-6.1,-42.9,90.61,-7.34,-2.17,36.814034,-119.74732,285.4,336.9380175725133,0.0,19.35484,,17 / 17,13811,2015-10-30 10:10:49:705
1.3755,0.7482,14.139,0.8207,0.5792,9.7551,-0.0428,-0.1332,0.3164,-31.7,-4.1,-42.2,92.75,-3.39,-4.81,36.814034,-119.74732,285.4,336.9380175725133,0.0,19.35484,,17 / 17,13913,2015-10-30 10:10:49:807
0.5567,0.7063,8.7819,0.6707,1.0448,9.7277,0.5962,0.3543,-0.1026,-32.2,-2.6,-41.6,88.63,-4.74,-4.63,36.814034,-119.74732,285.4,336.9380175725133,0.0,19.35484,,17 / 17,14015,2015-10-30 10:10:49:909
-0.3089,0.9385,6.0585,0.3436,1.5658,9.6747,0.6316,0.2443,0.0098,-32.3,-2.4,-41.5,81.16,-9.19,-2.03,36.814034,-119.74732,285.4,336.9380175725133,0.0,19.35484,,17 / 17,14118,2015-10-30 10:10:50:012
-0.2059,1.9369,5.6551,0.1054,2.0399,9.5916,-0.0672,-0.011,-0.1894,-31.4,-4.3,-42.2,81.02,-11.86,-0.8,36.814034,-119.74732,285.4,336.9380175725133,0.0,19.35484,,17 / 17,14220,2015-10-30 10:10:50:114
0.644,1.6412,12.323,0.2345,1.6964,9.656,-0.5791,-0.3262,-0.2505,-30.3,-6.1,-42.7,86.73,-9.96,-1.39,36.814034,-119.74732,285.4,336.9380175725133,0.0,19.35484,,17 / 17,14322,2015-10-30 10:10:50:216
0.5602,0.4597,15.8281,0.4049,1.0957,9.7368,-0.9505,-0.077,-0.441,-30.3,-6.2,-42.6,92.08,-6.41,-2.38,36.814034,-119.74732,285.4,336.9380175725133,0.0,19.35484,,17 / 17,14424,2015-10-30 10:10:50:318
0.3926,1.0056,9.5229,0.2976,0.936,9.7573,0.4862,0.0806,0.1136,-30.5,-4.9,-42.3,91.76,-5.48,-1.75,36.814034,-119.74732,285.4,336.9380175725133,0.0,19.35484,,17 / 17,14525,2015-10-30 10:10:50:419
0.5614,0.984,7.7321,0.2255,1.5088,9.6873,0.5107,0.0611,0.0721,-30.7,-4.5,-42.5,86.25,-7.95,-1.51,36.814034,-119.74732,285.4,336.9380175725133,0.0,19.35484,,17 / 17,14627,2015-10-30 10:10:50:521
-0.3759,1.3192,5.94,0.0469,1.8867,9.6233,0.2749,0.1454,0.0049,-30.3,-5.4,-43.1,83.5,-11.09,-0.28,36.814034,-119.74732,285.4,336.9380175725133,0.0,19.35484,,17 / 17,14729,2015-10-30 10:10:50:623
0.1281,2.1308,7.0378,0.0664,2.0135,9.5975,-0.1136,-0.0489,0.0794,-29.8,-6.8,-43.3,86.11,-11.85,-0.4,36.814034,-119.74732,285.4,336.9380175725133,0.0,19.35484,,17 / 17,14832,2015-10-30 10:10:50:726
-0.929,1.1684,12.7575,0.1751,1.687,9.6589,-0.4362,-0.1881,0.0098,-29.5,-7.5,-43.2,87.72,-10.61,-0.95,36.814034,-119.74732,285.4,336.9380175725133,0.0,19.35484,,17 / 17,14933,2015-10-30 10:10:50:827
0.0263,-0.2071,15.3959,0.4858,1.1922,9.7218,-0.2896,-0.2957,0.2443,-29.7,-6.8,-42.6,93.18,-6.98,-2.86,36.814034,-119.74732,285.4,336.9380175725133,0.0,19.35484,,17 / 17,15036,2015-10-30 10:10:50:930
0.9266,1.1193,8.5928,0.604,1.4436,9.681,0.0403,-0.0134,0.0941,-30.2,-6.0,-42.2,89.42,-8.17,-3.47,36.814034,-119.74732,285.4,336.9380175725133,0.0,19.35484,,17 / 17,15137,2015-10-30 10:10:51:031
-0.152,1.2055,7.1347,0.4846,1.4619,9.685,0.066,0.2285,-0.0476,-31.0,-4.7,-42.2,86.95,-8.57,-2.86,36.814034,-119.74732,285.4,336.9380175725133,0.0,19.35484,,17 / 17,15240,2015-10-30 10:10:51:134
-0.1772,1.8675,7.8566,0.4731,1.5772,9.6674,0.0782,-0.0391,-0.0171,-30.9,-4.5,-42.3,83.99,-9.26,-2.8,36.814034,-119.74732,285.4,336.9380175725133,0.0,19.35484,,17 / 17,15341,2015-10-30 10:10:51:235
-0.1041,1.7681,9.335,0.5228,1.6132,9.6589,0.0122,-0.1002,-0.16,-30.8,-4.7,-42.3,85.53,-9.47,-3.1,36.814034,-119.74732,285.4,336.9380175725133,0.0,19.35484,,17 / 17,15443,2015-10-30 10:10:51:337
0.7901,1.0139,11.8429,0.5779,1.4617,9.6799,-0.2676,-0.0904,-0.088,-30.8,-5.0,-42.4,86.82,-8.57,-3.42,36.814034,-119.74732,285.4,336.9380175725133,0.0,19.35484,,17 / 17,15545,2015-10-30 10:10:51:439
0.4717,0.419,11.3665,0.4743,0.939,9.7501,-0.3567,0.1759,-0.1686,-30.8,-4.6,-42.1,91.62,-5.49,-2.78,36.814034,-119.74732,285.4,336.9380175725133,0.0,19.35484,,17 / 17,15648,2015-10-30 10:10:51:542
0.5614,0.2825,10.6123,0.3808,1.1128,9.7359,0.1576,0.1234,0.066,-30.8,-4.0,-42.3,88.73,-6.13,-2.52,36.814034,-119.74732,285.4,336.9380175725133,0.0,19.35484,,17 / 17,15749,2015-10-30 10:10:51:643
0.1293,1.0295,6.4081,0.1341,1.4626,9.696,0.2309,0.2114,0.0086,-30.4,-3.7,-42.3,85.39,-8.58,-0.79,36.814034,-119.74732,285.4,336.9380175725133,0.0,19.35484,,17 / 17,15852,2015-10-30 10:10:51:746
0.2741,1.0582,6.3363,0.0469,1.5951,9.6759,0.1148,0.088,0.1576,-29.8,-4.2,-42.5,84.71,-9.18,-0.18,36.814034,-119.74732,285.4,336.9380175725133,0.0,19.35484,,17 / 17,15954,2015-10-30 10:10:51:848
0.079,1.6125,8.4707,0.1806,1.43,9.7001,-0.2505,0.066,0.2187,-29.3,-4.8,-42.9,87.15,-8.38,-1.07,36.814034,-119.74732,285.4,336.9380175725133,0.0,19.35484,,17 / 17,16056,2015-10-30 10:10:51:950
0.5794,0.6907,12.0189,0.2975,1.0948,9.7408,-0.485,-0.0428,0.1833,-29.2,-4.2,-42.7,88.09,-6.41,-1.75,36.814034,-119.74732,285.4,336.9380175725133,0.0,19.35484,,17 / 17,16158,2015-10-30 10:10:52:052
0.0922,-0.9122,16.0364,0.4891,0.7181,9.7681,0.6353,-0.226,0.4679,-29.7,-2.1,-42.2,87.56,-4.2,-2.87,36.814034,-119.74732,285.4,336.9380175725133,0.0,19.35484,,17 / 17,16260,2015-10-30 10:10:52:154
0.5507,0.0419,9.1303,0.649,1.0526,9.7284,0.1552,0.0452,-0.0904,-30.0,-1.0,-41.9,82.2,-6.16,-3.82,36.814034,-119.74732,285.4,336.9380175725133,0.0,19.35484,,17 / 17,16361,2015-10-30 10:10:52:255
0.1939,0.7817,6.5122,0.446,1.225,9.7196,0.204,-0.1124,-0.2309,-30.3,-0.5,-42.0,79.08,-7.18,-2.63,36.814034,-119.74732,285.4,336.9380175725133,0.0,19.35484,,17 / 17,16463,2015-10-30 10:10:52:357
-0.3508,1.2486,8.3414,0.5214,1.3354,9.7013,0.0904,-0.2053,-0.2224,-30.4,-1.5,-42.4,79.89,-7.83,-3.08,36.814034,-119.74732,285.4,336.9380175725133,0.0,19.35484,,17 / 17,16566,2015-10-30 10:10:52:460
-0.012,1.7861,10.4124,0.6123,1.3543,9.6934,-0.0513,-0.1136,-0.2761,-30.5,-2.4,-42.4,81.52,-7.94,-3.61,36.814034,-119.74732,285.4,336.9380175725133,0.0,19.35484,,17 / 17,16667,2015-10-30 10:10:52:561
-0.0706,1.725,10.1598,0.5207,1.4278,9.6882,0.1906,-0.0208,-0.2382,-30.6,-3.2,-42.4,83.72,-8.04,-3.28,36.814034,-119.74732,285.4,336.9380175725133,0.0,19.35484,,17 / 17,16769,2015-10-30 10:10:52:663
1.1037,-0.1305,12.8461,0.4337,1.581,9.6686,-0.1857,0.2138,-0.391,-30.8,-4.3,-42.1,83.36,-9.63,-3.05,36.814034,-119.74732,285.4,336.9380175725133,0.0,19.35484,,17 / 17,16872,2015-10-30 10:10:52:766
0.2861,-0.0718,9.3003,0.2741,1.4768,9.6909,-0.0586,0.1833,-0.1491,-30.6,-4.9,-42.2,86.58,-9.02,-1.61,36.814034,-119.74732,285.4,336.9380175725133,0.0,19.35484,,17 / 17,16973,2015-10-30 10:10:52:867
0.6596,0.2586,7.6758,0.306,1.4096,9.7,0.1625,0.1393,0.0977,-30.3,-5.6,-42.1,89.54,-8.26,-1.81,36.814034,-119.74732,285.4,336.9380175725133,0.0,19.35484,,17 / 17,17075,2015-10-30 10:10:52:969
0.5543,-0.012,8.7807,0.274,1.4736,9.6914,-0.0293,0.2602,-0.0745,-30.1,-5.8,-42.4,88.86,-8.68,-2.07,36.814034,-119.74732,285.4,336.9380175725133,0.0,19.35484,,17 / 17,17178,2015-10-30 10:10:53:072
0.8116,0.1305,10.155,0.1898,1.4505,9.6969,0.0281,0.2676,-0.1417,-29.8,-6.0,-42.5,89.29,-8.51,-1.12,36.814034,-119.74732,285.4,336.9380175725133,0.0,19.35484,,17 / 17,17285,2015-10-30 10:10:53:179
1.8519,1.1193,9.238,0.0146,1.4533,9.6984,0.0684,0.1552,-0.2162,-29.3,-6.5,-42.7,89.12,-8.52,-0.09,36.814034,-119.74732,285.4,336.9380175725133,0.0,19.35484,,17 / 17,17381,2015-10-30 10:10:53:275
3.4034,1.488,10.2424,-0.456,1.4374,9.69,0.1735,0.4398,-1.449,-28.6,-7.0,-43.1,91.66,-8.25,1.59,36.814034,-119.74732,285.4,336.9380175725133,0.0,19.35484,,17 / 17,17484,2015-10-30 10:10:53:378
1.5455,-0.3531,8.1989,-1.2147,1.295,9.6446,-0.0415,0.4398,-3.3341,-24.5,-11.0,-44.6,100.4,-7.59,7.18,36.814034,-119.74732,285.4,336.9380175725133,0.0,19.35484,,17 / 17,17585,2015-10-30 10:10:53:479
-1.5179,-1.7083,7.4867,-1.4289,0.8789,9.6621,0.1796,-0.5925,-3.6603,-19.2,-16.8,-44.4,116.5,-6.0,8.62,36.814034,-119.74732,285.4,336.9380175725133,0.0,19.35484,,17 / 17,17687,2015-10-30 10:10:53:581
-4.2246,-1.1121,9.7432,-1.0303,0.3027,9.7477,0.0843,-0.4423,-2.5424,-14.6,-19.6,-45.2,132.48,-2.02,6.74,36.814034,-119.74732,285.4,336.9380175725133,0.0,19.35484,,17 / 17,17789,2015-10-30 10:10:53:683
-3.6895,-0.4633,10.8146,-0.7127,0.1449,9.7796,-0.336,0.0709,-0.8063,-14.2,-19.7,-45.3,137.39,-1.47,4.33,36.814034,-119.74732,285.4,336.9380175725133,0.0,19.35484,,17 / 17,17891,2015-10-30 10:10:53:785
-0.753,-0.0431,12.888,-0.7657,-0.225,9.7741,-0.2859,0.0122,-0.4276,-12.1,-20.7,-45.2,144.87,1.31,4.48,36.814034,-119.74732,285.4,336.9380175725133,0.0,19.35484,,17 / 17,17993,2015-10-30 10:10:53:887
-0.8416,0.0311,10.1347,-0.7894,-0.3397,9.7689,0.4325,-0.3457,0.0305,-10.8,-20.7,-45.6,147.01,2.57,4.95,36.814034,-119.74732,285.4,336.9380175725133,0.0,19.35484,,17 / 17,18095,2015-10-30 10:10:53:989
-0.9433,-0.079,9.6534,-0.5986,-0.0167,9.7883,0.4203,-0.27,-0.1735,-10.1,-20.6,-45.8,148.93,0.61,3.7,36.814034,-119.74732,285.4,336.9380175725133,0.0,19.35484,,17 / 17,18198,2015-10-30 10:10:54:092
-0.3879,0.5806,8.3761,-0.2933,0.4892,9.7901,0.6267,-0.3592,-0.248,-10.1,-21.1,-46.1,148.88,-2.14,2.05,36.814034,-119.74732,285.4,336.9380175725133,0.0,19.35484,,17 / 17,18299,2015-10-30 10:10:54:193
-0.8356,1.2222,7.8027,-0.2308,0.7149,9.7778,0.3506,-0.1491,-0.2468,-10.4,-22.9,-45.3,150.66,-4.18,1.35,36.814034,-119.74732,285.4,336.9380175725133,0.0,19.35484,,17 / 17,18401,2015-10-30 10:10:54:295
-0.9098,1.6544,8.989,-0.0537,0.8324,9.7711,-0.1906,-0.0916,-0.358,-10.4,-24.9,-44.4,154.19,-4.87,0.32,36.814034,-119.74732,285.4,336.9380175725133,0.0,19.35484,,17 / 17,18504,2015-10-30 10:10:54:398
-0.3172,1.5778,9.402,0.0415,0.8161,9.7725,-0.0538,-0.3067,-0.121,-10.3,-25.5,-44.1,154.67,-4.7,0.12,36.814034,-119.74732,285.4,336.9380175725133,0.0,19.35484,,17 / 17,18606,2015-10-30 10:10:54:500
0.7865,0.492,11.8094,0.137,0.8143,9.7718,0.0782,-0.0098,-0.0953,-10.2,-25.9,-44.1,157.13,-4.76,-0.8,36.814034,-119.74732,285.4,336.9380175725133,0.0,19.35484,,17 / 17,18707,2015-10-30 10:10:54:601
-0.146,-0.1113,11.2539,0.0904,0.7427,9.7781,0.204,0.2541,-0.3115,-10.2,-25.8,-44.0,158.08,-4.0,-1.05,36.814034,-119.74732,285.4,336.9380175725133,0.0,19.35484,,17 / 17,18809,2015-10-30 10:10:54:703
-0.0048,1.0762,6.8857,-0.0267,0.9996,9.7555,0.3738,0.1991,0.0073,-9.4,-26.1,-43.7,156.9,-5.85,0.16,36.814034,-119.74732,285.4,336.9380175725133,0.0,19.35484,,17 / 17,18911,2015-10-30 10:10:54:805
-0.5782,1.0965,7.5944,-0.075,1.2271,9.7293,0.2016,-0.0611,-0.055,-8.9,-26.6,-43.4,156.53,-6.86,0.55,36.814034,-119.74732,285.4,336.9380175725133,0.0,19.35484,,17 / 17,19014,2015-10-30 10:10:54:908
0.0431,1.4329,9.2991,-0.064,1.361,9.7115,0.0757,-0.066,0.1124,-8.1,-27.8,-42.9,159.17,-7.98,0.38,36.814034,-119.74732,285.4,336.9380175725133,0.0,19.35484,,17 / 17,19115,2015-10-30 10:10:55:009
-0.1975,1.9644,8.4084,-0.0984,1.4885,9.6925,0.1869,-0.1759,0.3225,-8.1,-28.5,-42.6,158.27,-8.73,0.58,36.814034,-119.74732,285.4,336.9380175725133,0.0,19.35484,,17 / 17,19218,2015-10-30 10:10:55:112
-0.2418,-0.1856,13.1837,0.2286,1.3836,9.7059,-0.1026,-0.0843,0.2578,-8.5,-29.2,-42.1,160.98,-9.2,-0.62,36.814034,-119.74732,285.4,336.9380175725133,0.0,19.35484,,17 / 17,19319,2015-10-30 10:10:55:213
0.5195,0.577,8.5796,0.4983,1.2004,9.7201,0.1662,0.0562,0.5278,-9.8,-29.1,-41.7,161.62,-7.03,-2.93,36.814034,-119.74732,285.4,336.9380175725133,0.0,19.35484,,17 / 17,19422,2015-10-30 10:10:55:316
-0.243,0.3998,10.0365,0.5489,1.0,9.7401,-0.1881,0.1234,-0.0208,-11.4,-28.6,-42.0,160.62,-5.85,-3.23,36.814034,-119.74732,285.4,336.9380175725133,0.0,19.35484,,17 / 17,19524,2015-10-30 10:10:55:418
0.0551,0.8236,8.7376,0.4994,1.1555,9.7255,0.2114,0.0745,-0.1356,-12.1,-28.1,-42.3,156.86,-6.3,-2.85,36.814034,-119.74732,285.4,336.9380175725133,0.0,19.35484,,17 / 17,19625,2015-10-30 10:10:55:519
-0.0886,1.5143,7.7428,0.4478,1.374,9.6996,0.2639,-0.0244,-0.1662,-12.3,-28.2,-42.5,155.22,-8.05,-2.64,36.814034,-119.74732,285.4,336.9380175725133,0.0,19.35484,,17 / 17,19728,2015-10-30 10:10:55:622
-0.1927,1.4808,8.9352,0.4824,1.4019,9.6939,-0.0354,-0.1332,-0.248,-12.0,-28.6,-42.3,156.14,-8.26,-2.72,36.814034,-119.74732,285.4,336.9380175725133,0.0,19.35484,,17 / 17,19830,2015-10-30 10:10:55:724
0.346,1.7621,10.4842,0.7716,1.5239,9.6567,0.2871,-0.5315,-0.0244,-11.8,-29.1,-41.7,157.6,-8.38,-3.7,36.814034,-119.74732,285.4,336.9380175725133,0.0,19.35484,,17 / 17,19932,2015-10-30 10:10:55:826
-0.067,-0.7183,13.72,0.9657,1.138,9.6924,-0.9004,-0.2737,-0.4081,-12.0,-29.3,-41.1,161.78,-6.66,-5.69,36.814034,-119.74732,285.4,336.9380175725133,0.0,19.35484,,17 / 17,20034,2015-10-30 10:10:55:928
1.057,0.6153,9.0609,0.7175,1.2553,9.6995,-0.055,-0.0403,-0.0574,-11.8,-29.2,-41.4,159.15,-7.25,-4.22,36.814034,-119.74732,285.4,336.9380175725133,0.0,19.35484,,17 / 17,20135,2015-10-30 10:10:56:029
-0.2646,0.4872,9.499,0.3785,0.9799,9.7502,0.0367,-0.055,-0.2162,-11.3,-28.8,-41.8,159.45,-5.87,-2.46,36.814034,-119.74732,285.4,336.9380175725133,0.0,19.35484,,17 / 17,20238,2015-10-30 10:10:56:132
0.1772,0.8547,8.7089,0.4013,1.1889,9.726,0.3091,0.0293,-0.0318,-10.4,-28.5,-42.1,160.64,-6.44,-2.58,36.814034,-119.74732,285.4,336.9380175725133,0.0,19.35484,,17 / 17,20340,2015-10-30 10:10:56:234
0.3603,0.8823,8.3546,0.3453,1.4581,9.6915,0.3115,0.0061,0.1258,-9.5,-28.8,-41.7,161.48,-8.55,-2.04,36.814034,-119.74732,285.4,336.9380175725133,0.0,19.35484,,17 / 17,20442,2015-10-30 10:10:56:336
0.0862,1.4234,8.5521,0.3194,1.6284,9.6652,0.2162,-0.077,0.292,-9.3,-29.7,-41.1,161.42,-9.56,-1.89,36.814034,-119.74732,285.4,336.9380175725133,0.0,19.35484,,17 / 17,20544,2015-10-30 10:10:56:438
0.7195,1.7645,10.4064,0.4303,1.6924,9.6499,0.0929,-0.0831,0.0623,-9.5,-30.3,-40.6,162.27,-9.94,-2.55,36.814034,-119.74732,285.4,336.9380175725133,0.0,19.35484,,17 / 17,20646,2015-10-30 10:10:56:540
0.4429,-0.0838,13.0616,0.5699,1.4994,9.6746,-0.3128,-0.2358,0.2187,-10.5,-30.5,-40.4,161.98,-8.79,-3.37,36.814034,-119.74732,285.4,336.9380175725133,0.0,19.35484,,17 / 17,20747,2015-10-30 10:10:56:641
0.3172,0.7003,8.6239,0.6749,1.4685,9.6726,0.2944,0.6561,0.3812,-11.4,-30.2,-40.6,160.88,-8.61,-3.99,36.814034,-119.74732,285.4,336.9380175725133,0.0,19.35484,,17 / 17,20849,2015-10-30 10:10:56:743
-0.395,0.407,9.8174,0.1513,1.6357,9.6681,0.3396,0.2529,0.1991,-12.0,-29.9,-40.8,154.21,-9.17,-1.2,36.814034,-119.74732,285.4,336.9380175725133,0.0,19.35484,,17 / 17,20951,2015-10-30 10:10:56:845
-0.5531,0.431,9.2021,0.1191,1.798,9.6397,0.1038,-0.0941,-0.0049,-12.2,-30.2,-40.7,152.36,-10.56,-0.71,36.814034,-119.74732,285.4,336.9380175725133,0.0,19.35484,,17 / 17,21053,2015-10-30 10:10:56:947
-0.237,0.8535,9.2787,0.0885,1.6211,9.6713,-0.1063,-0.1869,0.0525,-11.9,-30.6,-40.4,153.7,-9.8,-0.39,36.814034,-119.74732,285.4,336.9380175725133,0.0,19.35484,,17 / 17,21156,2015-10-30 10:10:57:050
-0.2538,1.3575,10.2496,0.1735,1.518,9.6869,-0.0709,0.204,-0.044,-12.0,-30.8,-40.4,155.19,-8.91,-1.03,36.814034,-119.74732,285.4,336.9380175725133,0.0,19.35484,,17 / 17,21258,2015-10-30 10:10:57:152
-0.1281,1.5742,9.3362,0.1308,1.4583,9.6967,-0.0269,-0.1148,-0.1918,-11.9,-30.6,-40.5,154.85,-8.84,-0.74,36.814034,-119.74732,285.4,336.9380175725133,0.0,19.35484,,17 / 17,21359,2015-10-30 10:10:57:253
-0.6033,1.2019,9.1889,0.142,1.4025,9.7048,-0.022,-0.0757,0.0501,-11.6,-30.4,-40.9,154.41,-8.22,-0.84,36.814034,-119.74732,285.4,336.9380175725133,0.0,19.35484,,17 / 17,21461,2015-10-30 10:10:57:355
-0.17,1.1684,10.1849,0.1934,1.2834,9.7204,-0.1295,-0.0635,0.099,-11.5,-30.0,-41.2,157.31,-7.52,-1.14,36.814034,-119.74732,285.4,336.9380175725133,0.0,19.35484,,17 / 17,21563,2015-10-30 10:10:57:457
-0.2825,1.1827,9.7659,0.1324,1.1965,9.7325,0.0281,-0.055,0.0403,-11.5,-29.8,-41.3,157.13,-7.01,-0.78,36.814034,-119.74732,285.4,336.9380175725133,0.0,19.35484,,17 / 17,21665,2015-10-30 10:10:57:559
0.1089,1.4246,9.7971,0.1091,1.1861,9.7341,-0.0562,0.0464,0.0782,-11.7,-29.4,-41.7,154.05,-6.95,-0.64,36.814034,-119.74732,285.4,336.9380175725133,0.0,19.35484,,17 / 17,21767,2015-10-30 10:10:57:661
-0.0479,1.2881,9.9156,0.1486,1.1803,9.7342,-0.0721,-0.0513,-0.0452,-11.6,-29.1,-41.6,154.41,-6.91,-0.87,36.814034,-119.74732,285.4,336.9380175725133,0.0,19.35484,,17 / 17,21870,2015-10-30 10:10:57:764
0.8128,1.403,9.8749,0.1448,1.2135,9.7302,0.1368,0.0293,-0.193,-11.7,-29.0,-41.5,154.55,-6.94,-0.93,36.814034,-119.74732,285.4,336.9380175725133,0.0,19.35484,,17 / 17,21971,2015-10-30 10:10:57:865
1.1708,1.5586,9.1087,0.0681,1.472,9.6953,0.3262,0.0929,-0.5571,-11.4,-29.4,-41.2,154.55,-8.63,-0.4,36.814034,-119.74732,285.4,336.9380175725133,0.0,19.35484,,17 / 17,22074,2015-10-30 10:10:57:968
0.3472,1.1779,9.3913,-0.0529,1.7088,9.6565,0.2737,0.0086,-1.7019,-10.4,-30.0,-40.9,156.38,-9.6,-0.08,36.814034,-119.74732,285.4,336.9380175725133,0.0,19.35484,,17 / 17,22175,2015-10-30 10:10:58:069
-0.2011,1.397,9.6151,-0.3778,1.8351,9.626,0.1515,-0.2871,-2.3323,-3.6,-30.8,-40.2,167.12,-10.74,1.82,36.814034,-119.74732,285.4,336.9380175725133,0.0,19.35484,,17 / 17,22277,2015-10-30 10:10:58:171
-0.8116,0.8428,9.9012,-0.3852,1.8798,9.6171,0.2028,-0.5583,-2.1185,3.6,-30.2,-40.7,186.24,-11.05,2.29,36.814034,-119.74732,285.4,336.9380175725133,0.0,19.35484,,17 / 17,22380,2015-10-30 10:10:58:274
-0.4226,0.9541,10.1119,-0.2589,1.913,9.6148,0.1197,-0.5925,-2.0256,7.1,-28.2,-40.1,196.79,-11.25,1.54,36.814034,-119.74732,285.4,336.9380175725133,0.0,19.35484,,17 / 17,22481,2015-10-30 10:10:58:375
-0.2526,1.0116,8.831,-0.2171,1.9413,9.6101,0.1161,-0.3958,-1.9694,10.6,-24.7,-38.9,211.15,-11.42,1.29,36.814034,-119.74732,285.4,336.9380175725133,0.0,19.35484,,17 / 17,22583,2015-10-30 10:10:58:477
-1.7633,1.172,8.102,-0.3111,1.8605,9.6235,0.1246,-0.3873,-1.7129,14.2,-21.5,-40.9,224.8,-10.94,1.85,36.814034,-119.74732,285.4,336.9380175725133,0.0,19.35484,,17 / 17,22686,2015-10-30 10:10:58:580
-1.6556,0.899,9.9036,-0.1983,1.6433,9.666,-0.325,-0.4007,-1.2657,15.6,-18.1,-40.3,235.26,-10.36,1.34,36.814034,-119.74732,285.4,336.9380175725133,0.0,19.35484,,17 / 17,22787,2015-10-30 10:10:58:681
-1.2785,1.3252,6.7696,0.0172,1.591,9.6767,0.0,-0.3714,-0.3299,16.0,-15.3,-41.3,243.1,-9.34,-0.1,36.814034,-119.74732,285.4,336.9380175725133,0.0,19.35484,,17 / 17,22889,2015-10-30 10:10:58:783
-0.911,0.9002,10.556,0.4511,1.1547,9.728,-0.9786,-0.0831,0.0806,16.0,-14.0,-42.3,245.49,-8.21,-1.95,36.814034,-119.74732,285.4,336.9380175725133,0.0,19.35484,,17 / 17,22992,2015-10-30 10:10:58:886
-1.1157,0.7051,10.9415,0.5746,0.6079,9.7709,-0.2639,-0.2431,0.0379,15.1,-11.4,-43.5,244.43,-3.55,-3.37,36.814034,-119.74732,285.4,336.9380175725133,0.0,19.35484,,17 / 17,23093,2015-10-30 10:10:58:987
-0.4405,0.8272,8.5952,0.3663,0.8342,9.7642,0.237,0.0586,0.1136,14.3,-9.8,-44.7,248.48,-4.88,-2.15,36.814034,-119.74732,285.4,336.9380175725133,0.0,19.35484,,17 / 17,23195,2015-10-30 10:10:59:089
0.1125,0.7949,9.5014,0.2338,0.8815,9.7642,0.0452,0.0794,-0.1038,14.3,-9.3,-44.6,251.82,-5.16,-1.37,36.814034,-119.74732,285.4,336.9380175725133,0.0,19.35484,,17 / 17,23297,2015-10-30 10:10:59:191
-0.2131,0.6716,9.7887,0.1363,0.8568,9.7682,-0.0012,0.0208,-0.0831,14.8,-9.6,-44.2,248.77,-5.08,-0.87,36.814034,-119.74732,285.4,336.9380175725133,0.0,19.35484,,17 / 17,23399,2015-10-30 10:10:59:293
-0.3041,0.8583,9.8246,0.0915,0.8162,9.7722,-0.0782,0.0,-0.0696,15.1,-9.7,-43.8,247.72,-4.77,-0.54,36.814034,-119.74732,285.4,336.9380175725133,0.0,19.35484,,17 / 17,23502,2015-10-30 10:10:59:396
-0.3519,0.6524,9.9,0.0643,0.7651,9.7765,-0.0379,-0.0574,-0.0037,15.3,-9.5,-43.8,250.06,-4.47,-0.38,36.814034,-119.74732,285.4,336.9380175725133,0.0,19.35484,,17 / 17,23603,2015-10-30 10:10:59:497
-0.401,0.7051,9.6031,0.065,0.7602,9.7769,0.0012,0.0086,-0.0305,15.4,-9.2,-43.7,249.99,-4.43,-0.42,36.814034,-119.74732,285.4,336.9380175725133,0.0,19.35484,,17 / 17,23706,2015-10-30 10:10:59:600
-0.2454,0.668,9.6415,0.0483,0.7516,9.7777,-0.0061,-0.0195,-0.0171,15.4,-9.0,-43.4,249.51,-4.4,-0.28,36.814034,-119.74732,285.4,336.9380175725133,0.0,19.35484,,17 / 17,23807,2015-10-30 10:10:59:701
-0.1903,0.7075,9.8378,0.0633,0.7503,9.7777,0.0269,-0.0354,0.0024,15.2,-8.8,-43.4,249.57,-4.39,-0.37,36.814034,-119.74732,285.4,336.9380175725133,0.0,19.35484,,17 / 17,23910,2015-10-30 10:10:59:804
-0.1532,0.8009,9.5696,0.0676,0.7782,9.7755,-0.0086,0.0623,-0.022,15.3,-8.9,-43.4,249.9,-4.51,-0.41,36.814034,-119.74732,285.4,336.9380175725133,0.0,19.35484,,17 / 17,24011,2015-10-30 10:10:59:905
-0.231,0.7254,9.748,0.0416,0.7759,9.7758,0.0086,-0.033,-0.0037,15.3,-9.0,-43.3,249.84,-4.54,-0.24,36.814034,-119.74732,285.4,336.9380175725133,0.0,19.35484,,17 / 17,24113,2015-10-30 10:11:00:007
-0.17,0.8284,9.6965,0.0404,0.8054,9.7734,0.0464,-0.0232,-0.0049,15.4,-9.1,-43.1,250.06,-4.63,-0.22,36.814034,-119.74732,285.4,336.9380175725133,0.0,19.35484,,17 / 17,24215,2015-10-30 10:11:00:109
-0.2011,0.8164,9.663,0.0445,0.8297,9.7714,0.0342,-0.0073,-0.0171,15.2,-9.2,-42.9,250.65,-4.85,-0.26,36.814034,-119.74732,285.4,336.9380175725133,0.0,19.35484,,17 / 17,24317,2015-10-30 10:11:00:211
-0.2334,0.7721,9.6403,0.0459,0.8412,9.7704,0.0012,-0.0257,-0.0073,15.2,-9.3,-43.2,250.88,-4.94,-0.27,36.814034,-119.74732,285.4,336.9380175725133,0.0,19.35484,,17 / 17,24420,2015-10-30 10:11:00:314
-0.3867,0.6776,10.6207,0.0621,0.7416,9.7784,-0.226,-0.077,-0.011,15.0,-9.4,-43.4,250.25,-4.59,-0.59,36.814034,-119.74732,285.4,336.9380175725133,0.0,19.35484,,17 / 17,24521,2015-10-30 10:11:00:415