ACCELEROMETER X (m/s²),ACCELEROMETER Y (m/s²),ACCELEROMETER Z (m/s²),GRAVITY X (m/s²),GRAVITY Y (m/s²),GRAVITY Z (m/s²),GYROSCOPE X (rad/s),GYROSCOPE Y (rad/s),GYROSCOPE Z (rad/s),MAGNETIC FIELD X (μT),MAGNETIC FIELD Y (μT),MAGNETIC FIELD Z (μT),ORIENTATION Z (azimuth °),ORIENTATION X (pitch °),ORIENTATION Y (roll °),LOCATION Latitude : ,LOCATION Longitude : ,LOCATION Altitude ( m),LOCATION Altitude-google ( m),LOCATION Speed ( Kmh),LOCATION Accuracy ( m),LOCATION ORIENTATION (°),Satellites in range,Time since start in ms ,YYYY-MO-DD HH-MI-SS_SSS
-0.0323,1.8016,9.6881,0.1166,1.7084,9.656,0.0281,-0.0183,0.0318,-14.1,13.9,-48.1,31.19,-10.03,-0.69,36.81401,-119.74728,273.08,336.99731547286586,2.45,309.6774,138.1,17 / 17,73,2015-10-30 10:08:39:802
0.1269,1.6245,9.645,0.0968,1.733,9.6518,0.088,0.0318,0.0195,-14.0,13.6,-48.5,31.24,-10.18,-0.57,36.81401,-119.74728,273.08,336.99731547286586,2.45,309.6774,138.1,17 / 17,175,2015-10-30 10:08:39:904
-0.3172,1.737,9.6534,0.0028,1.8211,9.6361,0.0806,0.1381,0.0037,-13.8,13.4,-48.5,32.61,-10.6,-0.21,36.81401,-119.74728,273.08,336.99731547286586,2.45,309.6774,138.1,17 / 17,276,2015-10-30 10:08:40:005
0.1939,1.8495,9.42,-0.0273,1.8647,9.6277,0.0049,0.0037,0.0672,-13.4,13.1,-48.7,30.76,-10.96,0.16,36.81401,-119.74728,273.08,336.99731547286586,2.45,309.6774,138.1,17 / 17,378,2015-10-30 10:08:40:107
-0.0431,1.8292,9.6917,-0.0728,1.8779,9.6249,0.0611,0.0574,0.0929,-13.1,13.0,-48.7,31.12,-10.99,0.39,36.81401,-119.74728,273.08,336.99731547286586,2.45,309.6774,138.1,17 / 17,480,2015-10-30 10:08:40:209
0.0742,1.9585,9.5277,-0.1448,1.8738,9.6249,-0.0122,0.0049,0.2663,-12.6,12.9,-48.6,31.83,-11.1,0.88,36.81401,-119.74728,273.08,336.99731547286586,2.45,309.6774,138.1,17 / 17,583,2015-10-30 10:08:40:312
0.0144,2.0195,9.3913,-0.1273,1.8585,9.6281,-0.0342,0.0501,0.2798,-12.3,12.9,-48.7,29.77,-10.96,0.72,36.81401,-119.74728,273.08,336.99731547286586,2.45,309.6774,138.1,17 / 17,685,2015-10-30 10:08:40:414
0.4022,2.0794,10.1658,-0.1681,1.811,9.6365,-0.0806,-0.022,0.2187,-11.5,13.2,-48.7,28.55,-10.64,1.0,36.81401,-119.74728,273.08,336.99731547286586,2.45,309.6774,138.1,17 / 17,786,2015-10-30 10:08:40:515
-0.3663,2.0913,9.8186,-0.3213,1.942,9.6071,-0.099,0.1784,0.3604,-11.0,13.4,-48.8,28.95,-11.02,1.42,36.81401,-119.74728,273.08,336.99731547286586,2.45,309.6774,138.1,17 / 17,888,2015-10-30 10:08:40:617
-0.4776,2.0099,9.098,-0.3075,1.8899,9.6179,-0.0464,-0.0843,0.2407,-9.7,13.4,-48.7,27.82,-10.74,1.79,36.81401,-119.74728,273.08,336.99731547286586,2.45,309.6774,138.1,17 / 17,990,2015-10-30 10:08:40:719
-0.255,1.506,9.578,-0.273,1.6544,9.6622,-0.6084,-0.1393,0.193,-9.0,13.3,-48.7,25.93,-10.73,1.9,36.81401,-119.74728,273.08,336.99731547286586,2.45,309.6774,138.1,17 / 17,1092,2015-10-30 10:08:40:821
-0.5938,1.3563,9.5158,-0.3436,1.46,9.6913,0.3103,0.0,0.0648,-8.1,14.0,-48.1,25.02,-8.18,1.96,36.81401,-119.74728,273.08,336.99731547286586,2.45,309.6774,138.1,17 / 17,1194,2015-10-30 10:08:40:923
-0.2239,1.6388,9.8809,-0.4135,1.7029,9.6488,-0.055,-0.0269,-0.0721,-7.8,14.5,-47.9,23.73,-10.04,2.57,36.81401,-119.74728,273.08,336.99731547286586,2.45,309.6774,138.1,17 / 17,1296,2015-10-30 10:08:41:025
-0.5028,2.138,8.9519,-0.4334,1.8154,9.6274,0.2297,0.0061,-0.0831,-7.5,14.6,-47.5,21.5,-10.27,2.56,36.81401,-119.74728,273.08,336.99731547286586,2.45,309.6774,138.1,17 / 17,1398,2015-10-30 10:08:41:127
-0.2705,1.7945,9.0513,-0.3688,1.9165,9.6105,0.0806,0.0892,-0.16,-7.4,13.8,-48.2,20.97,-11.27,2.2,36.81401,-119.74728,273.08,336.99731547286586,2.45,309.6774,138.1,17 / 17,1501,2015-10-30 10:08:41:230
-1.5263,1.3647,9.4284,-0.5734,1.792,9.6245,-0.2712,-0.1466,-0.1943,-7.4,13.6,-48.2,23.26,-10.69,3.24,36.81401,-119.74728,273.08,336.99731547286586,2.45,309.6774,138.1,17 / 17,1602,2015-10-30 10:08:41:331
-0.1365,1.1732,9.9216,-0.5777,1.5625,9.6641,-0.1148,0.0941,0.3262,-7.8,14.0,-48.7,26.86,-9.17,3.42,36.81401,-119.74728,273.08,336.99731547286586,2.45,309.6774,138.1,17 / 17,1704,2015-10-30 10:08:41:433
-0.395,1.5323,9.5062,-0.5655,1.6017,9.6584,0.3018,0.0476,-0.0586,-7.8,14.4,-48.7,26.79,-8.78,3.2,36.81401,-119.74728,273.08,336.99731547286586,2.45,309.6774,138.1,17 / 17,1807,2015-10-30 10:08:41:536
-0.7889,1.0032,8.8406,-0.5657,1.5301,9.67,0.237,0.1002,-0.0037,-7.9,14.8,-48.5,25.5,-9.18,3.21,36.81401,-119.74728,273.08,336.99731547286586,2.45,309.6774,138.1,17 / 17,1908,2015-10-30 10:08:41:637
-0.2801,0.6416,9.5708,-0.5755,1.3221,9.7001,-0.1454,-0.0476,0.2236,-7.8,15.0,-48.4,26.99,-7.75,3.4,36.81401,-119.74728,273.08,336.99731547286586,2.45,309.6774,138.1,17 / 17,2011,2015-10-30 10:08:41:740
-0.8954,1.5909,9.7552,-0.457,1.4428,9.6892,0.1014,0.0635,0.0965,-7.9,15.0,-48.1,25.15,-8.34,2.64,36.81401,-119.74728,273.08,336.99731547286586,2.45,309.6774,138.1,17 / 17,2113,2015-10-30 10:08:41:842
-0.7147,1.7585,10.07,-0.4946,1.633,9.6571,0.2871,0.1234,0.3519,-7.8,15.2,-48.3,24.5,-9.1,2.61,36.81401,-119.74728,273.08,336.99731547286586,2.45,309.6774,138.1,17 / 17,2215,2015-10-30 10:08:41:944
0.0036,1.7358,8.9938,-0.4447,1.7228,9.6439,0.1283,-0.077,0.3433,-7.3,14.6,-48.8,22.16,-9.7,2.77,36.81401,-119.74728,273.08,336.99731547286586,2.45,309.6774,138.1,17 / 17,2316,2015-10-30 10:08:42:045
-0.0982,2.0877,9.3434,-0.3401,1.7607,9.6413,-0.1442,0.077,0.3958,-6.6,14.0,-49.0,21.17,-10.34,2.02,36.81401,-119.74728,273.08,336.99731547286586,2.45,309.6774,138.1,17 / 17,2419,2015-10-30 10:08:42:148
-0.231,1.8902,9.997,-0.4753,1.5651,9.6693,-0.1222,0.1943,0.1918,-5.9,13.9,-48.6,20.64,-9.37,2.57,36.81401,-119.74728,273.08,336.99731547286586,2.45,309.6774,138.1,17 / 17,2520,2015-10-30 10:08:42:249
-0.1676,1.7968,10.0149,-0.3903,1.5469,9.676,0.1173,-0.0489,0.2065,-5.1,14.2,-48.2,17.98,-9.08,2.31,36.81401,-119.74728,273.08,336.99731547286586,2.45,309.6774,138.1,17 / 17,2622,2015-10-30 10:08:42:351
-0.4274,1.8675,9.3925,-0.2515,1.6616,9.6616,0.0538,-0.1429,0.2236,-4.8,14.4,-48.1,17.34,-9.37,2.08,36.81401,-119.74728,273.08,336.99731547286586,2.45,309.6774,138.1,17 / 17,2725,2015-10-30 10:08:42:454
-0.0156,1.4473,9.0094,-0.2323,1.7313,9.6498,0.0183,0.1026,0.2553,-4.5,14.4,-48.0,13.34,-9.89,1.46,36.81401,-119.74728,273.08,336.99731547286586,2.45,309.6774,138.1,17 / 17,2827,2015-10-30 10:08:42:556
-0.0587,1.3695,9.074,-0.3127,1.8114,9.6328,0.0232,0.1772,0.4117,-4.0,13.9,-48.7,13.49,-10.26,1.63,36.81401,-119.74728,273.08,336.99731547286586,2.45,309.6774,138.1,17 / 17,2928,2015-10-30 10:08:42:657
0.2191,1.239,9.6738,-0.4752,1.7385,9.6396,-0.1356,0.3616,0.5571,-2.9,13.4,-49.1,13.71,-10.3,2.63,36.81401,-119.74728,273.08,336.99731547286586,2.45,309.6774,138.1,17 / 17,3031,2015-10-30 10:08:42:760
-0.6931,1.7478,10.483,-0.4526,1.5787,9.6681,-0.2236,-0.0147,-0.0733,-1.8,13.3,-49.1,11.57,-9.6,2.68,36.81401,-119.74728,273.08,336.99731547286586,2.45,309.6774,138.1,17 / 17,3132,2015-10-30 10:08:42:861
-0.516,1.6915,10.3537,-0.4214,1.5978,9.6664,0.055,0.0208,-0.0269,-0.8,13.3,-48.5,8.52,-9.38,2.5,36.81401,-119.74728,273.08,336.99731547286586,2.45,309.6774,138.1,17 / 17,3235,2015-10-30 10:08:42:964
-0.5578,1.7765,9.4822,-0.4927,1.7609,9.6347,0.2297,0.1368,-0.0012,-0.4,13.3,-48.0,6.54,-10.34,2.93,36.81401,-119.74728,273.08,336.99731547286586,2.45,309.6774,138.1,17 / 17,3336,2015-10-30 10:08:43:065
-0.3065,1.6293,9.0369,-0.5628,1.6745,9.6462,-0.0037,0.0965,0.0464,-0.4,13.2,-47.7,7.38,-9.86,3.25,36.81401,-119.74728,273.08,336.99731547286586,2.45,309.6774,138.1,17 / 17,3438,2015-10-30 10:08:43:167
-0.5291,1.4078,9.5936,-0.5358,1.4835,9.679,-0.0476,0.0183,0.0318,-0.2,13.4,-47.3,7.42,-8.7,3.17,36.81401,-119.74728,273.08,336.99731547286586,2.45,309.6774,138.1,17 / 17,3540,2015-10-30 10:08:43:269
-0.583,1.3791,9.9455,-0.4878,1.4177,9.6914,0.0525,-0.0586,0.0171,-0.2,13.9,-47.2,6.72,-8.3,2.97,36.81401,-119.74728,273.08,336.99731547286586,2.45,309.6774,138.1,17 / 17,3643,2015-10-30 10:08:43:372
-0.4633,1.3276,9.5636,-0.3789,1.373,9.7027,-0.0721,-0.1564,0.0379,-0.4,14.4,-47.2,5.44,-8.19,2.38,36.81401,-119.74728,273.08,336.99731547286586,2.45,309.6774,138.1,17 / 17,3745,2015-10-30 10:08:43:474
-0.3424,1.1037,9.1662,-0.2487,1.1611,9.7345,-0.3103,-0.1393,-0.011,-0.5,14.6,-47.0,4.79,-7.87,2.18,36.81401,-119.74728,273.08,336.99731547286586,2.45,309.6774,138.1,17 / 17,3847,2015-10-30 10:08:43:576
0.0204,0.2885,9.6019,-0.0745,0.8561,9.7689,-0.4313,-0.5021,-0.0953,-1.2,15.5,-47.1,5.2,-5.73,1.07,36.81401,-119.74728,273.08,336.99731547286586,2.45,309.6774,138.1,17 / 17,3948,2015-10-30 10:08:43:677
-0.249,0.5602,8.764,0.0558,0.5103,9.7932,-0.3494,0.0367,-0.0171,-2.0,16.5,-46.5,4.25,-3.73,-0.64,36.81401,-119.74728,273.08,336.99731547286586,2.45,309.6774,138.1,17 / 17,4050,2015-10-30 10:08:43:779
0.3843,0.2239,11.1151,-0.2709,0.1059,9.8023,-0.0012,0.1527,0.6524,-2.3,18.4,-45.7,10.03,-0.62,1.58,36.81401,-119.74728,273.08,336.99731547286586,2.45,309.6774,138.1,17 / 17,4152,2015-10-30 10:08:43:881
-0.6991,0.5231,10.3453,-0.378,0.5111,9.786,0.3506,0.215,0.1881,-1.7,19.2,-45.1,9.7,-1.86,1.9,36.81401,-119.74728,273.08,336.99731547286586,2.45,309.6774,138.1,17 / 17,4255,2015-10-30 10:08:43:984
0.0802,0.832,8.1391,0.0055,0.7662,9.7767,0.2883,-0.5119,-0.2627,-0.6,19.0,-45.1,5.56,-4.67,1.53,36.81401,-119.74728,273.08,336.99731547286586,2.45,309.6774,138.1,17 / 17,4357,2015-10-30 10:08:44:086
1.2965,0.2622,9.238,0.7088,0.5815,9.7637,0.1136,-0.0269,-0.1368,-2.1,18.4,-45.8,356.63,-2.61,-3.96,36.81401,-119.74728,273.08,336.99731547286586,2.45,309.6774,138.1,17 / 17,4459,2015-10-30 10:08:44:188
0.0503,0.6608,10.6338,0.5519,0.7174,9.7648,0.0562,0.9236,-0.325,-3.7,18.1,-46.1,0.92,-4.27,-4.54,36.81401,-119.74728,273.08,336.99731547286586,2.45,309.6774,138.1,17 / 17,4561,2015-10-30 10:08:44:290
0.0599,1.1193,9.0309,-0.4147,0.8362,9.7621,-0.1747,-0.3164,0.1368,-4.2,18.0,-46.4,15.24,-4.89,2.43,36.81401,-119.74728,273.08,336.99731547286586,2.45,309.6774,138.1,17 / 17,4663,2015-10-30 10:08:44:392
0.1305,0.1413,11.6011,-0.1636,0.5928,9.7874,-0.2517,-0.2492,-0.0342,-3.5,17.9,-46.4,10.9,-3.9,1.32,36.81401,-119.74728,273.08,336.99731547286586,2.45,309.6774,138.1,17 / 17,4764,2015-10-30 10:08:44:493
0.4549,1.2809,9.7755,-0.0983,1.2121,9.731,0.606,-0.0293,0.4496,-2.4,17.6,-46.2,6.55,-4.52,0.59,36.81401,-119.74728,273.08,336.99731547286586,2.45,309.6774,138.1,17 / 17,4866,2015-10-30 10:08:44:595
1.7861,1.5455,9.262,0.0052,0.9836,9.7572,-0.4826,-0.9102,-0.1796,-2.1,16.9,-46.4,6.84,-6.72,0.83,36.81401,-119.74728,273.08,336.99731547286586,2.45,309.6774,138.1,17 / 17,4969,2015-10-30 10:08:44:698
0.3591,0.9182,10.1526,0.6833,0.3808,9.7754,-0.9371,-1.1044,-0.336,-2.7,16.9,-46.4,357.09,-3.03,-4.96,36.81401,-119.74728,273.08,336.99731547286586,2.45,309.6774,138.1,17 / 17,5070,2015-10-30 10:08:44:799
0.3591,0.5327,8.9747,0.4528,0.5355,9.7815,0.237,-0.0171,-0.2211,-3.6,17.7,-46.1,5.21,-3.13,-2.65,36.81401,-119.74728,273.08,336.99731547286586,2.45,309.6774,138.1,17 / 17,5173,2015-10-30 10:08:44:902
0.6596,0.2358,10.4483,0.3011,0.2694,9.7983,-0.0867,0.4496,-0.2114,-4.6,18.6,-45.8,6.56,-2.78,-3.18,36.81401,-119.74728,273.08,336.99731547286586,2.45,309.6774,138.1,17 / 17,5274,2015-10-30 10:08:45:003
0.0192,0.3184,9.8366,0.0515,0.4992,9.7938,0.2297,0.0855,0.0855,-4.4,19.3,-45.7,9.78,-2.58,-0.46,36.81401,-119.74728,273.08,336.99731547286586,2.45,309.6774,138.1,17 / 17,5376,2015-10-30 10:08:45:105
-0.0431,0.8224,9.1339,-0.088,0.7351,9.7787,0.2492,0.1393,0.0379,-3.9,19.0,-46.1,10.53,-4.13,0.17,36.81401,-119.74728,273.08,336.99731547286586,2.45,309.6774,138.1,17 / 17,5479,2015-10-30 10:08:45:208
-0.0802,0.5519,10.1239,-0.0912,0.6541,9.7844,0.0513,0.0867,0.0269,-3.2,18.5,-46.4,8.68,-3.9,0.46,36.81401,-119.74728,273.08,336.99731547286586,2.45,309.6774,138.1,17 / 17,5580,2015-10-30 10:08:45:309
0.0527,0.5974,10.1909,-0.1811,0.6537,9.7832,-0.11,-0.2382,0.0452,-2.6,17.9,-46.3,10.38,-3.82,1.06,36.81401,-119.74728,273.08,336.99731547286586,2.45,309.6774,138.1,17 / 17,5682,2015-10-30 10:08:45:411
0.243,0.5124,9.6043,-0.1127,0.5969,9.7878,0.0599,0.1637,0.0208,-2.5,17.9,-46.5,6.95,-3.49,0.66,36.81401,-119.74728,273.08,336.99731547286586,2.45,309.6774,138.1,17 / 17,5785,2015-10-30 10:08:45:514
-0.176,0.9325,9.104,-0.1067,0.6915,9.7817,0.215,0.1356,-0.0024,-2.5,17.9,-46.5,6.73,-4.04,0.62,36.81401,-119.74728,273.08,336.99731547286586,2.45,309.6774,138.1,17 / 17,5886,2015-10-30 10:08:45:615
0.018,0.571,10.0054,-0.104,0.7183,9.7798,-0.0232,0.2077,0.0171,-2.6,17.8,-46.8,9.29,-4.2,0.61,36.81401,-119.74728,273.08,336.99731547286586,2.45,309.6774,138.1,17 / 17,5988,2015-10-30 10:08:45:717
-0.2346,0.6692,9.7671,-0.1964,0.7003,9.7796,-0.0183,-0.0269,-0.022,-2.5,17.5,-46.7,7.87,-4.1,1.15,36.81401,-119.74728,273.08,336.99731547286586,2.45,309.6774,138.1,17 / 17,6090,2015-10-30 10:08:45:819
0.0156,0.65,9.396,-0.1904,0.6229,9.785,-0.0134,-0.0195,0.0452,-2.4,17.6,-47.0,7.92,-3.64,1.11,36.81401,-119.74728,273.08,336.99731547286586,2.45,309.6774,138.1,17 / 17,6193,2015-10-30 10:08:45:922
-0.1389,0.498,9.566,-0.2108,0.5707,9.7878,0.0208,0.033,0.0098,-2.3,17.8,-46.7,8.28,-3.34,1.23,36.81401,-119.74728,273.08,336.99731547286586,2.45,309.6774,138.1,17 / 17,6294,2015-10-30 10:08:46:023
-0.1688,0.6656,9.4798,-0.1973,0.5223,9.7907,-0.0476,-0.0684,-0.0293,-2.3,18.1,-46.5,8.15,-3.05,1.15,36.81401,-119.74728,273.08,336.99731547286586,2.45,309.6774,138.1,17 / 17,6397,2015-10-30 10:08:46:126
-0.1341,0.4741,9.9192,-0.2133,0.5146,9.7908,0.0086,0.0195,0.044,-2.1,18.1,-46.1,8.37,-3.01,1.25,36.81401,-119.74728,273.08,336.99731547286586,2.45,309.6774,138.1,17 / 17,6498,2015-10-30 10:08:46:227
-0.1185,0.6069,9.6007,-0.2089,0.5343,9.7899,-0.0183,-0.1002,-0.0086,-2.1,18.3,-46.3,8.44,-3.07,1.29,36.81401,-119.74728,273.08,336.99731547286586,2.45,309.6774,138.1,17 / 17,6600,2015-10-30 10:08:46:329
-0.1137,0.5327,9.8797,-0.208,0.555,9.7887,-0.0024,-0.0134,-0.0147,-2.1,18.3,-46.4,8.23,-3.27,1.22,36.81401,-119.74728,273.08,336.99731547286586,2.45,309.6774,138.1,17 / 17,6703,2015-10-30 10:08:46:432
-0.1425,0.656,9.6379,-0.226,0.5696,9.7875,0.011,0.0195,0.0012,-2.1,18.3,-46.6,8.46,-3.33,1.32,36.81401,-119.74728,273.08,336.99731547286586,2.45,309.6774,138.1,17 / 17,6804,2015-10-30 10:08:46:533
-0.2933,0.6919,9.5397,-0.2251,0.5614,9.788,0.0611,0.0171,0.0,-2.1,18.3,-46.6,8.45,-3.14,1.28,36.81401,-119.74728,273.08,336.99731547286586,2.45,309.6774,138.1,17 / 17,6906,2015-10-30 10:08:46:635
-0.097,0.5878,9.5146,-0.203,0.5677,9.7881,0.0086,-0.0342,0.0122,-2.1,18.4,-46.6,8.25,-3.26,1.21,36.81401,-119.74728,273.08,336.99731547286586,2.45,309.6774,138.1,17 / 17,7009,2015-10-30 10:08:46:738
-0.0838,0.6117,9.7564,-0.2143,0.5789,9.7872,0.0428,0.066,0.0159,-2.3,18.4,-46.3,8.12,-3.35,1.18,36.81401,-119.74728,273.08,336.99731547286586,2.45,309.6774,138.1,17 / 17,7110,2015-10-30 10:08:46:839
-0.0682,0.6512,9.6642,-0.2025,0.6343,9.784,0.022,-0.0501,0.0086,-2.3,18.3,-46.0,8.03,-3.71,1.19,36.81401,-119.74728,273.08,336.99731547286586,2.45,309.6774,138.1,17 / 17,7213,2015-10-30 10:08:46:942
-0.1377,0.6285,9.7707,-0.1959,0.6303,9.7844,0.0599,0.044,-0.0208,-2.4,18.3,-46.1,7.93,-3.69,1.14,36.81401,-119.74728,273.08,336.99731547286586,2.45,309.6774,138.1,17 / 17,7314,2015-10-30 10:08:47:043
-0.1604,0.6907,9.9707,-0.2274,0.6585,9.7819,0.0892,0.0464,-0.0208,-2.3,18.0,-46.2,8.06,-3.76,1.21,36.81401,-119.74728,273.08,336.99731547286586,2.45,309.6774,138.1,17 / 17,7417,2015-10-30 10:08:47:146
-0.1796,0.7889,9.6067,-0.2664,0.7183,9.7767,0.1161,0.077,-0.0122,-2.4,17.9,-46.1,8.43,-4.0,1.42,36.81401,-119.74728,273.08,336.99731547286586,2.45,309.6774,138.1,17 / 17,7518,2015-10-30 10:08:47:247
-0.3436,0.8272,9.7779,-0.2675,0.7638,9.7732,-0.0391,-0.0428,-0.0733,-2.3,17.8,-45.9,8.61,-4.47,1.57,36.81401,-119.74728,273.08,336.99731547286586,2.45,309.6774,138.1,17 / 17,7620,2015-10-30 10:08:47:349
-0.322,0.893,9.7396,-0.2657,0.7619,9.7734,-0.0342,-0.0293,-0.011,-2.2,17.6,-46.0,8.75,-4.55,1.65,36.81401,-119.74728,273.08,336.99731547286586,2.45,309.6774,138.1,17 / 17,7722,2015-10-30 10:08:47:451
-0.103,0.8104,9.7707,-0.2958,0.7739,9.7716,0.0281,0.0293,0.0232,-2.1,17.4,-46.5,9.36,-4.53,1.73,36.81401,-119.74728,273.08,336.99731547286586,2.45,309.6774,138.1,17 / 17,7825,2015-10-30 10:08:47:554
-0.3639,0.9014,9.7384,-0.2836,0.7628,9.7728,-0.0098,0.0342,-0.0403,-2.1,17.4,-46.8,9.11,-4.5,1.59,36.81401,-119.74728,273.08,336.99731547286586,2.45,309.6774,138.1,16 / 17,7926,2015-10-30 10:08:47:655
-0.1448,0.7769,9.7719,-0.3135,0.7788,9.7706,-0.0476,-0.033,0.0037,-2.0,17.4,-46.8,9.68,-4.6,1.87,36.81401,-119.74728,273.08,336.99731547286586,2.45,309.6774,138.1,16 / 17,8028,2015-10-30 10:08:47:757
-0.431,0.8392,9.4918,-0.3431,0.7733,9.7701,0.0244,0.1173,-0.0709,-2.0,17.3,-46.8,9.71,-4.49,1.86,36.81401,-119.74728,273.08,336.99731547286586,2.45,309.6774,138.1,16 / 17,8130,2015-10-30 10:08:47:859
-0.407,0.8882,9.572,-0.406,0.777,9.7674,0.0269,0.1136,-0.0086,-1.8,17.2,-46.5,10.35,-4.51,2.19,36.81401,-119.74728,273.08,336.99731547286586,2.45,309.6774,138.1,16 / 17,8232,2015-10-30 10:08:47:961
-0.4262,0.8152,9.7983,-0.4351,0.7397,9.769,-0.0012,0.0342,-0.0257,-1.7,17.3,-46.5,11.21,-4.33,2.55,36.81401,-119.74728,273.08,336.99731547286586,2.45,309.6774,138.1,16 / 17,8334,2015-10-30 10:08:48:063
-0.3735,0.911,9.6283,-0.4745,0.7372,9.7674,0.0037,0.0538,-0.0293,-1.6,17.5,-46.1,10.93,-4.33,2.66,36.81401,-119.74728,273.08,336.99731547286586,2.45,309.6774,138.1,16 / 17,8437,2015-10-30 10:08:48:166
-0.5842,0.8236,9.9096,-0.5006,0.7652,9.7639,0.0745,0.0721,0.0024,-1.6,17.6,-45.9,11.26,-4.35,2.82,36.81401,-119.74728,273.08,336.99731547286586,2.45,309.6774,138.1,16 / 17,8538,2015-10-30 10:08:48:267
-0.3412,0.7997,9.1638,-0.4403,0.7943,9.7645,0.0586,-0.0293,0.0086,-1.6,17.6,-45.9,10.64,-4.65,2.58,36.81401,-119.74728,273.08,336.99731547286586,2.45,309.6774,138.1,16 / 17,8640,2015-10-30 10:08:48:369
-0.2765,0.7781,10.1335,-0.4159,0.7766,9.767,-0.0794,-0.0318,-0.215,-1.7,17.5,-45.9,10.48,-4.69,2.51,36.81401,-119.74728,273.08,336.99731547286586,2.45,309.6774,138.1,16 / 17,8743,2015-10-30 10:08:48:472
-0.2179,0.9577,9.6247,-0.4238,0.8132,9.7637,0.0867,0.0208,-0.1759,-1.8,17.4,-46.4,10.8,-4.66,2.42,36.81401,-119.74728,273.08,336.99731547286586,2.45,309.6774,138.1,16 / 17,8844,2015-10-30 10:08:48:573
0.0646,0.723,9.5912,-0.392,0.8058,9.7656,0.0684,-0.0843,-0.1955,-2.3,17.4,-46.8,10.58,-4.71,2.3,36.81401,-119.74728,273.08,336.99731547286586,2.45,309.6774,138.1,15 / 17,8947,2015-10-30 10:08:48:676
-0.1999,1.0714,9.5672,-0.3147,0.834,9.7661,0.0403,-0.0464,-0.3286,-2.7,17.4,-47.0,12.38,-4.85,1.94,36.81401,-119.74728,273.08,336.99731547286586,2.45,309.6774,138.1,15 / 17,9048,2015-10-30 10:08:48:777
-0.8475,1.1109,9.9132,-0.2873,0.8625,9.7644,0.0147,-0.0867,-0.3079,-3.7,17.5,-46.9,13.87,-5.0,1.76,36.81401,-119.74728,273.08,336.99731547286586,2.45,309.6774,138.1,15 / 17,9150,2015-10-30 10:08:48:879
-0.6752,1.075,9.5912,-0.2577,0.8799,9.7637,0.0,-0.0452,-0.1515,-4.3,17.5,-46.6,13.4,-5.18,1.56,36.81401,-119.74728,273.08,336.99731547286586,2.45,309.6774,138.1,15 / 17,9252,2015-10-30 10:08:48:981
-0.3005,0.7841,9.8306,-0.2879,0.869,9.7638,0.0147,-0.0024,-0.0684,-5.1,17.4,-46.7,16.84,-5.08,1.69,36.81401,-119.74728,273.08,336.99731547286586,2.45,309.6774,138.1,15 / 17,9354,2015-10-30 10:08:49:083
-0.1652,0.8296,9.4224,-0.2947,0.8628,9.7642,-0.0012,0.0024,-0.0733,-5.6,17.4,-46.8,16.8,-5.1,1.67,36.81401,-119.74728,273.08,336.99731547286586,2.45,309.6774,138.1,15 / 17,9457,2015-10-30 10:08:49:186
-0.1963,0.8775,9.73,-0.2904,0.8323,9.7669,-0.0305,-0.0183,-0.0464,-5.7,17.4,-46.7,19.5,-4.92,1.73,36.81401,-119.74728,273.08,336.99731547286586,2.45,309.6774,138.1,15 / 17,9558,2015-10-30 10:08:49:287
-0.1975,0.9134,9.6678,-0.2871,0.8014,9.7696,-0.044,0.0599,-0.1271,-5.9,17.6,-46.7,18.47,-4.75,1.57,36.81401,-119.74728,273.08,336.99731547286586,2.45,309.6774,138.1,15 / 17,9660,2015-10-30 10:08:49:389
-0.0395,0.7434,10.4124,-0.3044,0.7377,9.7741,0.0929,0.1014,-0.2602,-5.9,17.8,-46.6,18.89,-4.44,1.69,36.81401,-119.74728,273.08,336.99731547286586,2.45,309.6774,138.1,15 / 17,9763,2015-10-30 10:08:49:492
-0.255,0.9948,9.0106,-0.4697,0.8566,9.7579,0.1772,0.1918,-0.391,-6.2,17.8,-47.0,20.56,-5.01,2.76,36.81401,-119.74728,273.08,336.99731547286586,2.45,309.6774,138.1,15 / 17,9865,2015-10-30 10:08:49:594
0.6261,1.2725,9.6115,-0.5506,0.8186,9.7569,-0.0611,0.1038,-0.5253,-6.5,17.8,-46.8,21.11,-5.09,3.08,36.81401,-119.74728,273.08,336.99731547286586,2.45,309.6774,138.1,17 / 17,9966,2015-10-30 10:08:49:695
0.5255,0.1856,10.3501,-0.6426,0.6156,9.7662,0.1075,-0.0929,-0.9982,-7.3,17.8,-47.1,25.21,-3.95,3.63,36.81401,-119.74728,273.08,336.99731547286586,2.45,309.6774,138.1,17 / 17,10068,2015-10-30 10:08:49:797
-0.4848,0.0982,10.8625,-0.5297,0.6512,9.7707,0.088,-0.215,-1.504,-8.6,17.9,-47.0,29.12,-3.41,3.12,36.81401,-119.74728,273.08,336.99731547286586,2.45,309.6774,138.1,17 / 17,10171,2015-10-30 10:08:49:900
-1.1205,1.1384,9.657,-0.6018,1.1715,9.7178,0.2089,-0.4594,-0.9774,-11.3,16.8,-47.0,32.72,-6.76,4.1,36.81401,-119.74728,273.08,336.99731547286586,2.45,309.6774,138.1,17 / 17,10272,2015-10-30 10:08:50:001
-1.3946,1.4413,9.5804,-0.2798,1.1607,9.7337,-0.1588,-0.8112,-0.5168,-14.2,14.8,-46.7,37.65,-7.03,2.29,36.81401,-119.74728,273.08,336.99731547286586,2.45,309.6774,138.1,17 / 17,10375,2015-10-30 10:08:50:104
-0.4537,1.1396,10.2927,0.3259,1.0806,9.7415,-0.1161,-0.6231,-0.3164,-16.5,13.7,-46.9,37.8,-6.37,-1.37,36.81401,-119.74728,273.08,336.99731547286586,2.45,309.6774,138.1,17 / 17,10476,2015-10-30 10:08:50:205
-0.6907,1.8268,9.7564,0.2234,1.0414,9.7486,0.0122,0.3103,-0.2407,-19.3,12.9,-46.7,44.67,-6.03,-1.57,36.81401,-119.74728,273.08,336.99731547286586,2.45,309.6774,138.1,17 / 17,10579,2015-10-30 10:08:50:308
0.3364,1.0139,9.7588,-0.3252,1.1098,9.7382,0.0965,0.7721,0.2566,-20.7,12.8,-46.7,50.08,-6.34,0.74,36.81401,-119.74728,273.08,336.99731547286586,2.45,309.6774,138.1,17 / 17,10680,2015-10-30 10:08:50:409
-0.6979,1.4724,9.0884,-0.6802,1.2433,9.7037,0.0819,-0.325,-0.3848,-19.9,12.6,-47.0,51.23,-7.28,4.01,36.81401,-119.74728,273.08,336.99731547286586,2.45,309.6774,138.1,17 / 17,10783,2015-10-30 10:08:50:512
0.5076,0.9697,10.0616,-0.4923,1.124,9.7296,-0.2016,-0.088,-0.0489,-19.2,12.3,-47.4,50.9,-6.96,3.08,36.81401,-119.74728,273.08,336.99731547286586,2.45,309.6774,138.1,17 / 17,10885,2015-10-30 10:08:50:614
0.9493,1.6532,10.307,-0.2887,0.9081,9.7602,-0.0684,0.2615,-0.1258,-19.1,12.2,-47.4,51.44,-5.31,1.69,36.81401,-119.74728,273.08,336.99731547286586,2.45,309.6774,138.1,17 / 17,10986,2015-10-30 10:08:50:715
-0.407,1.0594,9.1506,-0.6151,0.9543,9.7407,-0.3702,-0.0428,-0.0819,-19.3,12.2,-47.3,52.89,-5.83,3.6,36.81401,-119.74728,273.08,336.99731547286586,2.45,309.6774,138.1,17 / 17,11088,2015-10-30 10:08:50:817
-0.589,1.4772,8.0313,-0.5149,0.8603,9.7553,0.0342,-0.0757,0.3042,-19.5,12.5,-46.9,51.64,-5.03,3.02,36.81401,-119.74728,273.08,336.99731547286586,2.45,309.6774,138.1,17 / 17,11190,2015-10-30 10:08:50:919
-0.2693,-0.4908,10.167,0.0388,0.636,9.7859,0.0415,-0.0061,0.7587,-19.7,12.9,-46.6,51.22,-4.04,0.3,36.81401,-119.74728,273.08,336.99731547286586,2.45,309.6774,138.1,17 / 17,11292,2015-10-30 10:08:51:021
0.419,0.2957,10.6075,-0.0505,0.7279,9.7795,0.16,0.4203,0.992,-19.8,13.9,-45.8,49.04,-4.07,-0.19,36.81401,-119.74728,273.08,336.99731547286586,2.45,309.6774,138.1,17 / 17,11395,2015-10-30 10:08:51:124
0.2167,0.7434,9.9347,-0.4952,1.077,9.7347,-0.0122,0.3592,1.1668,-18.4,14.8,-45.8,45.66,-6.3,2.91,36.81401,-119.74728,273.08,336.99731547286586,2.45,309.6774,138.1,17 / 17,11497,2015-10-30 10:08:51:226
0.0622,0.3364,9.8928,-0.7779,1.1424,9.7088,0.0024,0.4985,1.2645,-15.4,15.1,-46.3,42.23,-6.58,4.02,36.81401,-119.74728,273.08,336.99731547286586,2.45,309.6774,138.1,17 / 17,11599,2015-10-30 10:08:51:328
-0.0084,0.978,9.9311,-0.6306,1.0715,9.7275,-0.0049,0.1295,0.6854,-12.8,15.5,-46.7,37.43,-6.21,3.68,36.81401,-119.74728,273.08,336.99731547286586,2.45,309.6774,138.1,17 / 17,11701,2015-10-30 10:08:51:430
-0.4094,1.1349,10.4639,-0.699,1.016,9.7288,-0.2676,-0.0476,0.584,-9.6,15.9,-46.7,32.81,-5.95,4.11,36.81401,-119.74728,273.08,336.99731547286586,2.45,309.6774,138.1,17 / 17,11803,2015-10-30 10:08:51:532
-0.577,1.4521,9.6822,-0.7189,0.9567,9.7334,0.0086,0.1136,0.4569,-8.2,16.4,-46.7,29.09,-5.49,4.09,36.81401,-119.74728,273.08,336.99731547286586,2.45,309.6774,138.1,17 / 17,11904,2015-10-30 10:08:51:633
-0.8655,1.2845,9.5589,-0.6524,0.9408,9.7396,-0.088,-0.1979,0.2627,-6.6,16.7,-46.7,25.87,-5.61,4.17,36.81401,-119.74728,273.08,336.99731547286586,2.45,309.6774,138.1,17 / 17,12007,2015-10-30 10:08:51:736
-1.3671,2.2422,9.25,-0.7904,1.0016,9.7233,0.3519,0.1051,-0.0403,-5.8,17.1,-46.2,23.61,-5.2,4.01,36.81401,-119.74728,273.08,336.99731547286586,2.45,309.6774,138.1,17 / 17,12108,2015-10-30 10:08:51:837
-0.4824,1.1301,11.8178,-0.8859,0.9818,9.7171,-0.3714,0.2187,0.3665,-5.3,17.1,-46.2,22.32,-6.27,4.98,36.81401,-119.74728,273.08,336.99731547286586,2.45,309.6774,138.1,17 / 17,12210,2015-10-30 10:08:51:939
-0.0227,0.917,8.5988,-0.4614,1.2685,9.7133,0.1246,-0.3103,0.5363,-4.9,16.9,-46.0,17.5,-7.43,2.72,36.81401,-119.74728,273.08,336.99731547286586,2.45,309.6774,138.1,17 / 17,12313,2015-10-30 10:08:52:042
0.644,1.312,8.7891,-0.2379,1.3564,9.7095,-0.0391,0.3592,0.0684,-4.8,16.4,-46.3,15.2,-7.79,1.24,36.81401,-119.74728,273.08,336.99731547286586,2.45,309.6774,138.1,17 / 17,12414,2015-10-30 10:08:52:143
-0.571,1.3898,9.4703,-0.5759,1.2631,9.7079,-0.0073,0.3567,-0.1185,-4.8,15.7,-46.9,19.26,-7.66,3.32,36.81401,-119.74728,273.08,336.99731547286586,2.45,309.6774,138.1,17 / 17,12517,2015-10-30 10:08:52:246
-0.1856,1.2067,10.2759,-0.5879,1.1071,9.7262,-0.1759,0.1662,0.1295,-4.4,15.9,-47.3,17.88,-6.48,3.46,36.81401,-119.74728,273.08,336.99731547286586,2.45,309.6774,138.1,17 / 17,12618,2015-10-30 10:08:52:347
-0.5806,1.081,10.3813,-0.4905,1.0207,9.741,-0.066,-0.1246,-0.0012,-3.8,16.5,-47.3,16.64,-6.07,3.09,36.81401,-119.74728,273.08,336.99731547286586,2.45,309.6774,138.1,17 / 17,12721,2015-10-30 10:08:52:450
-0.3053,1.0558,9.4822,-0.4931,1.1298,9.7289,0.1087,0.0513,0.044,-3.7,16.8,-46.7,15.89,-6.32,2.78,36.81401,-119.74728,273.08,336.99731547286586,2.45,309.6774,138.1,17 / 17,12823,2015-10-30 10:08:52:552
-0.3639,1.0211,9.6055,-0.5022,1.1087,9.7308,-0.0806,0.0318,-0.0611,-3.7,16.8,-46.6,16.14,-6.49,2.95,36.81401,-119.74728,273.08,336.99731547286586,2.45,309.6774,138.1,17 / 17,12924,2015-10-30 10:08:52:653
-0.723,1.1349,9.5852,-0.546,1.0947,9.73,-0.0244,0.0037,-0.0012,-3.6,16.7,-46.6,16.55,-6.47,3.16,36.81401,-119.74728,273.08,336.99731547286586,2.45,309.6774,138.1,17 / 17,13027,2015-10-30 10:08:52:756
-0.7135,1.0606,9.9359,-0.5932,1.0768,9.7293,-0.0489,-0.0073,0.0929,-3.6,16.7,-46.9,17.12,-6.38,3.43,36.81401,-119.74728,273.08,336.99731547286586,2.45,309.6774,138.1,17 / 17,13128,2015-10-30 10:08:52:857
-0.559,1.0606,9.5541,-0.531,1.0887,9.7316,0.0599,-0.0501,-0.0183,-3.5,16.7,-47.0,14.19,-6.23,3.13,36.81401,-119.74728,273.08,336.99731547286586,2.45,309.6774,138.1,17 / 17,13231,2015-10-30 10:08:52:960
-0.6464,1.154,9.5265,-0.5063,1.1088,9.7306,0.0232,0.0806,0.0476,-3.4,16.6,-47.0,13.78,-6.49,2.98,36.81401,-119.74728,273.08,336.99731547286586,2.45,309.6774,138.1,17 / 17,13332,2015-10-30 10:08:53:061
-0.3328,1.1217,9.8222,-0.493,1.1053,9.7317,-0.0147,0.0195,0.0562,-3.4,16.4,-46.9,14.35,-6.5,2.96,36.81401,-119.74728,273.08,336.99731547286586,2.45,309.6774,138.1,17 / 17,13434,2015-10-30 10:08:53:163
-0.3879,1.2773,9.4523,-0.5504,1.1644,9.7217,0.0098,0.0086,-0.0122,-3.3,16.4,-46.6,14.77,-6.82,3.24,36.81401,-119.74728,273.08,336.99731547286586,2.45,309.6774,138.1,17 / 17,13537,2015-10-30 10:08:53:266
-0.3675,1.2701,9.8402,-0.5505,1.187,9.719,0.0061,0.0061,0.0159,-3.1,16.3,-46.8,14.86,-6.96,3.32,36.81401,-119.74728,273.08,336.99731547286586,2.45,309.6774,138.1,17 / 17,13638,2015-10-30 10:08:53:367
-0.3567,1.4078,9.6474,-0.5311,1.248,9.7124,0.0501,-0.088,0.0171,-3.0,16.2,-46.7,14.3,-7.31,3.13,36.81401,-119.74728,273.08,336.99731547286586,2.45,309.6774,138.1,17 / 17,13741,2015-10-30 10:08:53:470
-0.5399,1.2151,9.8725,-0.5005,1.2803,9.7098,0.0867,-0.0183,-0.0147,-3.0,16.0,-47.2,13.85,-7.5,2.95,36.81401,-119.74728,273.08,336.99731547286586,2.45,309.6774,138.1,17 / 17,13842,2015-10-30 10:08:53:571
-0.4274,1.3228,9.8378,-0.4987,1.3192,9.7047,-0.033,-0.0171,-0.0049,-3.2,15.9,-47.2,13.75,-7.77,2.96,36.81401,-119.74728,273.08,336.99731547286586,2.45,309.6774,138.1,17 / 17,13945,2015-10-30 10:08:53:674
-0.4932,1.3575,9.8186,-0.5438,1.3481,9.6983,-0.0428,0.0281,0.0208,-3.2,15.6,-47.9,14.11,-7.96,3.16,36.81401,-119.74728,273.08,336.99731547286586,2.45,309.6774,138.1,17 / 17,14047,2015-10-30 10:08:53:776
-0.7602,1.5036,9.5553,-0.5573,1.3666,9.695,0.0293,0.0012,0.033,-3.3,15.6,-47.9,14.32,-7.92,3.26,36.81401,-119.74728,273.08,336.99731547286586,2.45,309.6774,138.1,17 / 17,14149,2015-10-30 10:08:53:878
-0.486,1.4796,9.6067,-0.5471,1.3951,9.6915,0.0452,-0.0098,0.0513,-3.2,15.3,-47.9,14.76,-8.18,3.23,36.81401,-119.74728,273.08,336.99731547286586,2.45,309.6774,138.1,17 / 17,14250,2015-10-30 10:08:53:979
-0.3567,1.3587,9.8509,-0.5464,1.4214,9.6877,0.0281,0.0257,0.0501,-3.2,15.3,-47.8,14.64,-8.31,3.21,36.81401,-119.74728,273.08,336.99731547286586,2.45,309.6774,138.1,17 / 17,14353,2015-10-30 10:08:54:082
-0.4022,1.4629,9.505,-0.554,1.4615,9.6813,0.0367,0.0452,0.0269,-3.1,15.0,-47.8,14.56,-8.51,3.22,36.81401,-119.74728,273.08,336.99731547286586,2.45,309.6774,138.1,17 / 17,14454,2015-10-30 10:08:54:183
-0.2993,1.4473,9.657,-0.5591,1.4666,9.6802,-0.0073,0.0,0.0183,-3.0,14.9,-47.8,14.75,-8.61,3.34,36.81401,-119.74728,273.08,336.99731547286586,2.45,309.6774,138.1,17 / 17,14556,2015-10-30 10:08:54:285
-0.5507,1.5538,9.6881,-0.5617,1.4608,9.681,-0.0098,0.0183,0.0037,-2.8,14.8,-47.7,14.68,-8.62,3.3,36.81401,-119.74728,273.08,336.99731547286586,2.45,309.6774,138.1,17 / 17,14658,2015-10-30 10:08:54:387
-0.5171,1.482,9.9036,-0.602,1.4822,9.6753,-0.0501,0.0024,0.055,-2.7,14.7,-47.7,15.16,-8.75,3.57,36.81401,-119.74728,273.08,336.99731547286586,2.45,309.6774,138.1,17 / 17,14764,2015-10-30 10:08:54:493
-0.4812,1.5191,9.5816,-0.5982,1.4916,9.6741,0.0159,0.0342,0.0538,-2.6,14.7,-47.6,15.25,-8.7,3.6,36.81401,-119.74728,273.08,336.99731547286586,2.45,309.6774,138.1,17 / 17,14863,2015-10-30 10:08:54:592
-0.407,1.4605,9.8509,-0.5916,1.4771,9.6767,-0.066,-0.011,0.0244,-2.5,14.7,-47.8,12.64,-8.77,3.54,36.81401,-119.74728,273.08,336.99731547286586,2.45,309.6774,138.1,17 / 17,14964,2015-10-30 10:08:54:693
-0.4621,1.5766,9.5062,-0.5833,1.4643,9.6792,0.0293,-0.0024,-0.0159,-2.5,14.8,-47.7,12.59,-8.55,3.47,36.81401,-119.74728,273.08,336.99731547286586,2.45,309.6774,138.1,17 / 17,15066,2015-10-30 10:08:54:795
-0.6632,1.5742,9.4906,-0.6043,1.473,9.6765,-0.0049,0.0562,-0.0073,-2.4,14.7,-47.9,12.5,-8.6,3.43,36.81401,-119.74728,273.08,336.99731547286586,2.45,309.6774,138.1,17 / 17,15168,2015-10-30 10:08:54:897
-0.5614,1.6245,9.0441,-0.5338,1.4872,9.6785,0.0452,-0.1417,0.0012,-2.5,14.8,-47.8,12.51,-8.68,3.46,36.81401,-119.74728,273.08,336.99731547286586,2.45,309.6774,138.1,17 / 17,15271,2015-10-30 10:08:55:000
-0.7901,1.4928,9.6079,-0.4808,1.412,9.6925,-0.022,-0.0623,-0.0354,-2.7,14.8,-47.7,13.9,-8.28,2.84,36.81401,-119.74728,273.08,336.99731547286586,2.45,309.6774,138.1,17 / 17,15372,2015-10-30 10:08:55:101
0.261,1.3934,9.6283,-0.2644,1.3778,9.7058,-0.066,-0.1368,0.0086,-3.0,15.0,-47.3,11.98,-8.2,1.92,36.81401,-119.74728,273.08,336.99731547286586,2.45,309.6774,138.1,17 / 17,15475,2015-10-30 10:08:55:204
-0.3268,1.506,9.4727,-0.2957,1.3533,9.7083,-0.011,0.0147,-0.0721,-3.4,15.2,-47.0,11.52,-7.96,1.65,36.81401,-119.74728,273.08,336.99731547286586,2.45,309.6774,138.1,17 / 17,15576,2015-10-30 10:08:55:305
-0.0611,1.3707,9.3254,-0.3207,1.3634,9.7061,0.0757,0.0122,-0.0061,-3.8,15.4,-47.1,14.54,-7.94,1.87,36.81401,-119.74728,273.08,336.99731547286586,2.45,309.6774,138.1,17 / 17,15678,2015-10-30 10:08:55:407
-0.5315,1.3048,9.6175,-0.3628,1.3375,9.7082,-0.0049,-0.0183,-0.0293,-3.8,15.5,-47.1,14.47,-7.85,2.12,36.81401,-119.74728,273.08,336.99731547286586,2.45,309.6774,138.1,17 / 17,15781,2015-10-30 10:08:55:510
-0.158,1.4222,9.5636,-0.3682,1.3256,9.7097,-0.0098,0.0159,0.0061,-3.7,15.5,-47.2,14.59,-7.77,2.17,36.81401,-119.74728,273.08,336.99731547286586,2.45,309.6774,138.1,17 / 17,15882,2015-10-30 10:08:55:611
-0.4154,1.2115,10.489,-0.3998,1.2606,9.7171,-0.1124,0.0061,-0.0037,-3.5,15.5,-47.3,12.56,-7.54,2.32,36.81401,-119.74728,273.08,336.99731547286586,2.45,309.6774,138.1,17 / 17,15984,2015-10-30 10:08:55:713
-0.4357,1.4449,9.2249,-0.4214,1.327,9.7073,0.0635,0.0403,-0.0171,-3.5,15.7,-47.2,12.81,-7.64,2.47,36.81401,-119.74728,273.08,336.99731547286586,2.45,309.6774,138.1,17 / 17,16087,2015-10-30 10:08:55:816
-0.5231,1.4018,9.6786,-0.4894,1.3376,9.7027,0.0305,0.077,0.055,-3.4,15.7,-47.2,13.15,-7.84,2.68,36.81401,-119.74728,273.08,336.99731547286586,2.45,309.6774,138.1,17 / 17,16189,2015-10-30 10:08:55:918
-0.3627,1.324,9.809,-0.4841,1.3243,9.7048,-0.0623,-0.0257,0.0904,-3.2,15.7,-47.1,13.54,-7.76,2.85,36.81401,-119.74728,273.08,336.99731547286586,2.45,309.6774,138.1,17 / 17,16290,2015-10-30 10:08:56:019
-0.2059,1.4533,9.2308,-0.4637,1.3668,9.6999,0.0244,-0.033,0.0586,-3.1,15.6,-47.2,13.53,-7.97,2.9,36.81401,-119.74728,273.08,336.99731547286586,2.45,309.6774,138.1,17 / 17,16393,2015-10-30 10:08:56:122
0.1748,1.4317,10.1538,-0.3766,1.4412,9.6929,0.4826,0.5864,-0.0159,-3.1,15.5,-47.2,11.01,-7.86,1.63,36.81401,-119.74728,273.08,336.99731547286586,2.45,309.6774,138.1,17 / 17,16495,2015-10-30 10:08:56:224
0.0658,1.9728,10.3082,-0.3608,1.6997,9.6515,0.1662,-0.2932,0.0819,-3.0,14.9,-47.5,11.73,-9.98,2.14,36.81401,-119.74728,273.08,336.99731547286586,2.45,309.6774,138.1,17 / 17,16597,2015-10-30 10:08:56:326
-0.0886,1.5167,4.5442,-0.6022,1.9958,9.5825,0.5803,0.4765,0.1368,-2.6,13.9,-47.9,14.38,-11.74,3.6,36.81401,-119.74728,273.08,336.99731547286586,2.45,309.6774,138.1,17 / 17,16699,2015-10-30 10:08:56:428
-1.4078,1.6149,11.6083,-0.3647,1.5768,9.6722,-0.1979,-0.1552,-0.1588,-2.4,13.3,-47.9,10.75,-10.35,2.46,36.81401,-119.74728,273.08,336.99731547286586,2.45,309.6774,138.1,17 / 17,16800,2015-10-30 10:08:56:529
0.2298,1.5886,9.7719,-0.0839,1.453,9.698,-0.2749,-0.8515,0.1539,-2.8,13.5,-47.4,9.3,-8.52,0.5,36.81401,-119.74728,273.08,336.99731547286586,2.45,309.6774,138.1,17 / 17,16902,2015-10-30 10:08:56:631
0.7937,1.6209,9.013,0.5357,1.4873,9.6784,0.3067,-0.1283,0.2505,-4.2,14.2,-47.2,4.4,-8.59,-2.91,36.81401,-119.74728,273.08,336.99731547286586,2.45,309.6774,138.1,17 / 17,17005,2015-10-30 10:08:56:734
1.1624,1.494,9.8162,0.6369,1.5364,9.6646,-0.1234,-0.1967,0.1454,-6.0,14.7,-47.2,7.42,-9.01,-3.77,36.81401,-119.74728,273.08,336.99731547286586,2.45,309.6774,138.1,17 / 17,17106,2015-10-30 10:08:56:835