ACCELEROMETER X (m/s²),ACCELEROMETER Y (m/s²),ACCELEROMETER Z (m/s²),GRAVITY X (m/s²),GRAVITY Y (m/s²),GRAVITY Z (m/s²),GYROSCOPE X (rad/s),GYROSCOPE Y (rad/s),GYROSCOPE Z (rad/s),MAGNETIC FIELD X (μT),MAGNETIC FIELD Y (μT),MAGNETIC FIELD Z (μT),ORIENTATION Z (azimuth °),ORIENTATION X (pitch °),ORIENTATION Y (roll °),LOCATION Latitude : ,LOCATION Longitude : ,LOCATION Altitude ( m),LOCATION Altitude-google ( m),LOCATION Speed ( Kmh),LOCATION Accuracy ( m),LOCATION ORIENTATION (°),Satellites in range,Time since start in ms ,YYYY-MO-DD HH-MI-SS_SSS
-0.2179,0.0527,9.4942,-0.2137,0.1811,9.8026,0.0611,-0.0305,-0.0318,-17.2,18.0,-17.7,43.57,-0.97,1.3,36.814095,-119.74785,248.88,336.71549362204377,3.33,19.35484,272.63,0 / 0,53,2015-10-30 10:49:13:058
-0.2741,0.0527,9.7528,-0.2234,0.202,9.802,-0.0098,0.0012,-0.0257,-17.1,17.9,-17.8,43.46,-1.2,1.3,36.814095,-119.74785,248.88,336.71549362204377,3.33,19.35484,272.63,0 / 0,155,2015-10-30 10:49:13:160
-0.3843,0.1161,9.7671,-0.2318,0.2044,9.8018,0.0073,0.0012,0.0354,-17.0,17.8,-17.6,43.49,-1.19,1.35,36.814095,-119.74785,248.88,336.71549362204377,3.33,19.35484,272.63,0 / 0,257,2015-10-30 10:49:13:262
-0.4022,0.146,9.6223,-0.239,0.2122,9.8014,0.022,-0.0171,-0.0073,-17.1,18.0,-17.4,43.47,-1.22,1.35,36.814095,-119.74785,248.88,336.71549362204377,3.33,19.35484,272.63,0 / 0,359,2015-10-30 10:49:13:364
-0.2454,0.2083,9.7348,-0.2653,0.2257,9.8005,0.033,-0.0049,0.0403,-17.1,18.1,-17.2,43.55,-1.26,1.56,36.814095,-119.74785,248.88,336.71549362204377,3.33,19.35484,272.63,0 / 0,461,2015-10-30 10:49:13:466
-0.3244,0.1365,9.6307,-0.289,0.2345,9.7996,-0.0012,0.0208,0.0257,-17.1,18.2,-17.4,43.57,-1.37,1.69,36.814095,-119.74785,248.88,336.71549362204377,3.33,19.35484,272.63,0 / 0,563,2015-10-30 10:49:13:568
-0.3986,0.1915,9.7217,-0.306,0.23,9.7992,-0.0012,0.0159,-0.0024,-17.0,18.3,-17.6,43.64,-1.35,1.77,36.814095,-119.74785,248.88,336.71549362204377,3.33,19.35484,272.63,0 / 0,665,2015-10-30 10:49:13:670
-0.4741,0.1413,9.9,-0.3033,0.2232,9.7994,0.0037,-0.0061,0.0012,-17.0,18.4,-17.7,43.66,-1.29,1.78,36.814095,-119.74785,248.88,336.71549362204377,3.33,19.35484,272.63,0 / 0,767,2015-10-30 10:49:13:772
-0.4238,0.1676,9.6642,-0.3051,0.2414,9.7989,0.0183,0.0159,0.0257,-17.0,18.4,-17.5,43.6,-1.37,1.75,36.814095,-119.74785,248.88,336.71549362204377,3.33,19.35484,272.63,0 / 0,869,2015-10-30 10:49:13:874
-0.4034,0.2131,9.5217,-0.32,0.2638,9.7979,-0.0024,0.0037,0.0452,-16.9,18.4,-17.3,43.59,-1.5,1.84,36.814095,-119.74785,248.88,336.71549362204377,3.33,19.35484,272.63,0 / 0,971,2015-10-30 10:49:13:976
-0.3041,0.2047,9.7049,-0.3195,0.2651,9.7979,0.0,0.0171,0.0098,-16.8,18.5,-17.4,42.04,-1.57,1.83,36.814095,-119.74785,248.88,336.71549362204377,3.33,19.35484,272.63,0 / 0,1072,2015-10-30 10:49:14:077
-0.34,0.2095,9.6343,-0.3248,0.2574,9.7979,-0.0171,0.0232,-0.011,-16.6,18.6,-17.4,42.1,-1.5,1.9,36.814095,-119.74785,248.88,336.71549362204377,3.33,19.35484,272.63,0 / 0,1175,2015-10-30 10:49:14:180
-0.48,0.2286,9.7719,-0.3409,0.2397,9.7977,0.0134,-0.0024,-0.0122,-16.5,18.6,-17.6,40.53,-1.43,1.97,36.814095,-119.74785,248.88,336.71549362204377,3.33,19.35484,272.63,0 / 0,1277,2015-10-30 10:49:14:282
-0.3831,0.1736,9.7995,-0.3269,0.2394,9.7983,-0.0012,-0.0195,-0.0195,-16.6,18.7,-17.5,42.18,-1.4,1.97,36.814095,-119.74785,248.88,336.71549362204377,3.33,19.35484,272.63,0 / 0,1378,2015-10-30 10:49:14:383
-0.4274,0.1628,9.6798,-0.3257,0.2458,9.7982,0.0073,-0.0037,-0.0086,-16.6,18.7,-17.3,42.14,-1.42,1.9,36.814095,-119.74785,248.88,336.71549362204377,3.33,19.35484,272.63,0 / 0,1481,2015-10-30 10:49:14:486
-0.4824,0.1796,9.5732,-0.3247,0.2401,9.7983,-0.0318,0.0,-0.0037,-16.7,18.7,-17.5,42.15,-1.4,1.91,36.814095,-119.74785,248.88,336.71549362204377,3.33,19.35484,272.63,0 / 0,1583,2015-10-30 10:49:14:588
-0.4741,0.1987,9.8078,-0.3203,0.2166,9.799,-0.0195,-0.0098,0.0012,-16.8,18.7,-17.9,42.2,-1.28,1.87,36.814095,-119.74785,248.88,336.71549362204377,3.33,19.35484,272.63,0 / 0,1685,2015-10-30 10:49:14:690
-0.3675,0.1688,9.7636,-0.311,0.2142,9.7994,-0.0024,-0.033,0.0049,-16.9,18.7,-18.1,42.21,-1.26,1.86,36.814095,-119.74785,248.88,336.71549362204377,3.33,19.35484,272.63,0 / 0,1787,2015-10-30 10:49:14:792
-0.4214,0.2298,9.663,-0.3223,0.21,9.7991,-0.0037,0.0049,-0.0086,-16.9,18.7,-18.1,42.23,-1.23,1.88,36.814095,-119.74785,248.88,336.71549362204377,3.33,19.35484,272.63,0 / 0,1889,2015-10-30 10:49:14:894
-0.3639,0.267,9.6271,-0.315,0.2107,9.7993,-0.0122,-0.0049,-0.0098,-16.8,18.7,-17.8,42.23,-1.21,1.87,36.814095,-119.74785,248.88,336.71549362204377,3.33,19.35484,272.63,0 / 0,1991,2015-10-30 10:49:14:996
-0.4405,0.1844,9.7719,-0.3042,0.2018,9.7999,0.0073,-0.033,-0.0012,-16.7,18.5,-17.5,42.18,-1.18,1.78,36.814095,-119.74785,248.88,336.71549362204377,3.33,19.35484,272.63,0 / 0,2092,2015-10-30 10:49:15:097
-0.407,0.2358,9.6558,-0.2987,0.1899,9.8003,0.0049,-0.0195,-0.0086,-16.6,18.3,-17.4,43.71,-1.13,1.76,36.814095,-119.74785,248.88,336.71549362204377,3.33,19.35484,272.63,0 / 0,2195,2015-10-30 10:49:15:200
-0.4142,0.2083,9.8126,-0.295,0.1858,9.8005,0.0134,0.0,0.0122,-16.7,18.3,-17.6,43.73,-1.09,1.72,36.814095,-119.74785,248.88,336.71549362204377,3.33,19.35484,272.63,0 / 0,2297,2015-10-30 10:49:15:302
-0.4118,0.2167,9.7695,-0.2826,0.2253,9.8,0.0586,-0.0318,0.0147,-16.8,18.2,-17.4,43.62,-1.24,1.67,36.814095,-119.74785,248.88,336.71549362204377,3.33,19.35484,272.63,0 / 0,2399,2015-10-30 10:49:15:404
-0.3998,0.2693,9.7432,-0.2798,0.2525,9.7994,0.0342,-0.0208,0.0171,-16.9,18.3,-17.4,43.54,-1.42,1.66,36.814095,-119.74785,248.88,336.71549362204377,3.33,19.35484,272.63,0 / 0,2501,2015-10-30 10:49:15:506
-0.3771,0.3208,9.7037,-0.2907,0.2487,9.7992,-0.0147,-0.0037,0.022,-17.0,18.2,-17.3,43.53,-1.46,1.7,36.814095,-119.74785,248.88,336.71549362204377,3.33,19.35484,272.63,0 / 0,2603,2015-10-30 10:49:15:608
-0.4477,0.2873,9.7767,-0.2955,0.2337,9.7994,-0.0183,0.0012,0.0147,-17.0,18.1,-17.5,43.56,-1.4,1.69,36.814095,-119.74785,248.88,336.71549362204377,3.33,19.35484,272.63,0 / 0,2705,2015-10-30 10:49:15:710
-0.4729,0.243,9.7013,-0.304,0.2239,9.7994,-0.011,0.0122,0.0147,-17.0,18.2,-17.6,43.63,-1.33,1.76,36.814095,-119.74785,248.88,336.71549362204377,3.33,19.35484,272.63,0 / 0,2807,2015-10-30 10:49:15:812
-0.3879,0.2406,9.7444,-0.3011,0.2096,9.7998,-0.0415,-0.0098,0.0159,-16.9,18.3,-17.8,43.68,-1.22,1.76,36.814095,-119.74785,248.88,336.71549362204377,3.33,19.35484,272.63,0 / 0,2909,2015-10-30 10:49:15:914
-0.3579,0.243,9.7659,-0.3011,0.1828,9.8003,-0.0476,-0.0073,0.0305,-16.9,18.4,-17.7,43.71,-1.14,1.73,36.814095,-119.74785,248.88,336.71549362204377,3.33,19.35484,272.63,0 / 0,3011,2015-10-30 10:49:16:016
-0.4693,0.2107,9.7588,-0.2993,0.1635,9.8007,-0.0122,0.0037,0.0232,-16.8,18.4,-17.7,43.77,-0.98,1.71,36.814095,-119.74785,248.88,336.71549362204377,3.33,19.35484,272.63,0 / 0,3112,2015-10-30 10:49:16:117
-0.4058,0.2215,9.7588,-0.3085,0.1449,9.8007,-0.0159,0.0024,0.0208,-16.9,18.3,-17.7,43.88,-0.85,1.8,36.814095,-119.74785,248.88,336.71549362204377,3.33,19.35484,272.63,0 / 0,3215,2015-10-30 10:49:16:220
-0.4094,0.1891,9.6546,-0.3158,0.1543,9.8004,0.0086,-0.0037,0.0195,-16.8,18.3,-17.7,43.93,-0.84,1.88,36.814095,-119.74785,248.88,336.71549362204377,3.33,19.35484,272.63,0 / 0,3317,2015-10-30 10:49:16:322
-0.5052,0.1401,9.6438,-0.3134,0.1526,9.8005,-0.0049,-0.011,0.0305,-16.8,18.4,-17.7,43.86,-0.9,1.81,36.814095,-119.74785,248.88,336.71549362204377,3.33,19.35484,272.63,0 / 0,3419,2015-10-30 10:49:16:424
-0.4812,0.1975,9.6415,-0.3162,0.1547,9.8003,-0.0098,-0.011,0.0391,-16.6,18.4,-17.6,43.88,-0.9,1.85,36.814095,-119.74785,248.88,336.71549362204377,3.33,19.35484,272.63,0 / 0,3521,2015-10-30 10:49:16:526
-0.3879,0.1532,9.7983,-0.3117,0.1287,9.8008,-0.022,0.0195,0.0305,-16.7,18.4,-17.4,43.91,-0.76,1.85,36.814095,-119.74785,248.88,336.71549362204377,3.33,19.35484,272.63,0 / 0,3623,2015-10-30 10:49:16:628
-0.3723,0.1867,9.5888,-0.3169,0.1245,9.8007,0.0134,-0.0147,0.0452,-16.7,18.6,-17.5,42.4,-0.73,1.85,36.814095,-119.74785,248.88,336.71549362204377,3.33,19.35484,272.63,0 / 0,3724,2015-10-30 10:49:16:729
-0.4154,0.1484,9.6642,-0.3194,0.116,9.8008,-0.0098,-0.022,0.0354,-16.6,18.7,-17.2,42.43,-0.71,1.9,36.814095,-119.74785,248.88,336.71549362204377,3.33,19.35484,272.63,0 / 0,3827,2015-10-30 10:49:16:832
-0.4525,0.1041,9.7588,-0.3229,0.1133,9.8007,-0.0024,0.0086,0.0379,-16.5,18.9,-16.9,40.77,-0.67,1.87,36.814095,-119.74785,248.88,336.71549362204377,3.33,19.35484,272.63,0 / 0,3929,2015-10-30 10:49:16:934
-0.4585,0.1867,9.7947,-0.3388,0.1131,9.8001,-0.0061,0.022,0.0293,-16.4,18.9,-16.6,40.83,-0.66,1.98,36.814095,-119.74785,248.88,336.71549362204377,3.33,19.35484,272.63,0 / 0,4031,2015-10-30 10:49:17:036
-0.3448,0.243,9.4308,-0.3498,0.1164,9.7997,0.0049,0.0159,0.0476,-16.3,18.9,-16.8,40.85,-0.66,2.03,36.814095,-119.74785,248.88,336.71549362204377,3.33,19.35484,272.63,0 / 0,4133,2015-10-30 10:49:17:138
-0.4932,0.1844,9.7995,-0.3637,0.1016,9.7994,-0.0195,0.0049,0.0367,-16.2,18.8,-16.9,40.91,-0.62,2.11,36.814095,-119.74785,248.88,336.71549362204377,3.33,19.35484,272.63,0 / 0,4234,2015-10-30 10:49:17:239
-0.486,0.079,9.7588,-0.3775,0.1174,9.7987,0.0428,0.0012,0.044,-16.0,18.9,-17.3,40.94,-0.65,2.21,36.814095,-119.74785,248.88,336.71549362204377,3.33,19.35484,272.63,0 / 0,4337,2015-10-30 10:49:17:342
-0.5399,0.1652,9.5505,-0.3797,0.1261,9.7985,-0.0171,0.0061,0.0305,-15.9,19.0,-17.3,40.91,-0.74,2.22,36.814095,-119.74785,248.88,336.71549362204377,3.33,19.35484,272.63,0 / 0,4438,2015-10-30 10:49:17:443
-0.4944,0.1999,9.8653,-0.3795,0.1029,9.7988,-0.0024,-0.0244,0.0403,-15.8,19.1,-17.2,40.97,-0.62,2.24,36.814095,-119.74785,248.88,336.71549362204377,3.33,19.35484,272.63,0 / 0,4541,2015-10-30 10:49:17:546
-0.4058,0.249,9.6379,-0.3698,0.113,9.799,-0.0195,0.0037,-0.0232,-15.7,19.3,-17.3,40.93,-0.65,2.18,36.814095,-119.74785,248.88,336.71549362204377,3.33,19.35484,272.63,0 / 0,4643,2015-10-30 10:49:17:648
-0.5447,0.0622,9.7049,-0.3745,0.1089,9.7989,0.0098,-0.0073,-0.0012,-15.6,19.3,-17.1,40.91,-0.66,2.15,36.814095,-119.74785,248.88,336.71549362204377,3.33,19.35484,272.63,0 / 0,4745,2015-10-30 10:49:17:750
-0.4824,0.1532,9.7169,-0.3876,0.0924,9.7986,-0.0379,0.0061,0.0,-15.6,19.4,-17.3,40.98,-0.6,2.25,36.814095,-119.74785,248.88,336.71549362204377,3.33,19.35484,272.63,0 / 0,4847,2015-10-30 10:49:17:852
-0.5183,0.1592,9.7145,-0.3797,0.0628,9.7991,-0.0232,-0.0073,0.0086,-15.7,19.4,-17.0,41.04,-0.47,2.26,36.814095,-119.74785,248.88,336.71549362204377,3.33,19.35484,272.63,0 / 0,4948,2015-10-30 10:49:17:953
-0.5148,0.176,9.5696,-0.3877,0.0562,9.7988,-0.0415,0.0244,0.0354,-15.7,19.6,-16.9,39.66,-0.33,2.25,36.814095,-119.74785,248.88,336.71549362204377,3.33,19.35484,272.63,0 / 0,5050,2015-10-30 10:49:18:055
-0.395,0.2861,9.4499,-0.3982,0.0548,9.7984,0.0293,-0.0183,0.077,-15.7,19.6,-16.8,39.72,-0.27,2.34,36.814095,-119.74785,248.88,336.71549362204377,3.33,19.35484,272.63,0 / 0,5153,2015-10-30 10:49:18:158
-0.2227,0.1149,9.7755,-0.4037,0.0248,9.7983,-0.0696,-0.0281,-0.0977,-15.6,19.6,-17.0,39.74,-0.28,2.39,36.814095,-119.74785,248.88,336.71549362204377,3.33,19.35484,272.63,0 / 0,5255,2015-10-30 10:49:18:260
0.4298,0.0646,10.24,-0.3414,0.0104,9.8007,-0.0562,0.0684,-0.5657,-15.6,19.5,-16.8,39.6,-0.13,1.98,36.814095,-119.74785,248.88,336.71549362204377,3.33,19.35484,272.63,0 / 0,5357,2015-10-30 10:49:18:362
0.9098,0.2562,9.6163,-0.3997,0.0905,9.7981,0.1918,0.0867,-0.8051,-16.0,19.4,-16.8,41.09,-0.21,2.14,36.814095,-119.74785,248.88,336.71549362204377,3.33,19.35484,272.63,0 / 0,5459,2015-10-30 10:49:18:464
0.2741,-0.6117,9.7145,-0.7658,0.2726,9.7729,0.3824,0.3067,-1.6017,-17.4,18.3,-16.8,44.76,-1.59,4.48,36.814095,-119.74785,248.88,336.71549362204377,3.33,19.35484,272.63,0 / 0,5561,2015-10-30 10:49:18:566
-0.486,-0.6847,8.4479,-1.0309,0.5037,9.7393,0.3616,-0.1038,-2.1735,-19.2,15.9,-17.2,51.07,-2.18,5.37,36.814095,-119.74785,248.88,336.71549362204377,3.33,19.35484,272.63,0 / 0,5663,2015-10-30 10:49:18:668
-0.431,-1.6652,9.6786,-1.1019,0.3689,9.7376,0.1002,0.1478,-2.5681,-23.1,8.4,-17.6,70.6,-2.67,5.97,36.814095,-119.74785,248.88,336.71549362204377,3.33,19.35484,272.63,0 / 0,5765,2015-10-30 10:49:18:770
0.2251,-1.5909,10.7105,-0.8843,0.2393,9.7638,0.1857,-0.3274,-2.5937,-25.9,-2.0,-16.2,93.45,-1.48,5.69,36.814095,-119.74785,248.88,336.71549362204377,3.33,19.35484,272.63,0 / 0,5867,2015-10-30 10:49:18:872
0.1796,-1.6161,9.821,-0.6565,0.2293,9.782,0.2749,-0.3018,-2.595,-25.2,-9.3,-16.0,108.36,-1.35,4.26,36.814095,-119.74785,248.88,336.71549362204377,3.33,19.35484,272.63,0 / 0,5969,2015-10-30 10:49:18:974
-0.7482,-1.64,9.5265,-0.4284,0.2679,9.7936,0.1747,-0.281,-2.5656,-19.8,-20.7,-13.5,135.16,-1.57,2.5,36.814095,-119.74785,248.88,336.71549362204377,3.33,19.35484,272.63,0 / 0,6071,2015-10-30 10:49:19:076
-0.8595,-1.227,9.511,-0.2925,0.2297,9.7996,0.11,-0.1881,-2.4911,-15.3,-25.7,-13.2,149.0,-1.46,1.92,36.814095,-119.74785,248.88,336.71549362204377,3.33,19.35484,272.63,0 / 0,6172,2015-10-30 10:49:19:177
-0.893,-1.8399,9.5433,-0.0488,0.2919,9.8022,0.1808,-0.1686,-2.1588,-6.0,-30.8,-13.1,168.61,-1.42,0.78,36.814095,-119.74785,248.88,336.71549362204377,3.33,19.35484,272.63,0 / 0,6275,2015-10-30 10:49:19:280
-0.8487,-1.4102,9.7468,0.1512,0.3617,9.7988,0.0476,-0.1649,-2.0598,0.5,-30.4,-15.7,182.19,-1.93,-0.45,36.814095,-119.74785,248.88,336.71549362204377,3.33,19.35484,272.63,0 / 0,6377,2015-10-30 10:49:19:382
-1.5311,-1.0918,9.5205,0.1787,0.3661,9.7982,0.0037,-0.1136,-2.0696,7.4,-28.5,-16.7,195.01,-2.13,-1.13,36.814095,-119.74785,248.88,336.71549362204377,3.33,19.35484,272.63,0 / 0,6479,2015-10-30 10:49:19:484
-1.8208,-0.6788,9.3853,0.083,0.2962,9.8018,-0.11,0.0086,-1.9731,11.3,-26.7,-17.3,202.96,-1.9,-0.67,36.814095,-119.74785,248.88,336.71549362204377,3.33,19.35484,272.63,0 / 0,6581,2015-10-30 10:49:19:586
-2.1584,-0.4238,10.0281,-0.0535,0.1609,9.8052,-0.0464,-0.0122,-1.482,16.2,-23.5,-20.0,215.03,-0.94,0.31,36.814095,-119.74785,248.88,336.71549362204377,3.33,19.35484,272.63,0 / 0,6683,2015-10-30 10:49:19:688
-1.6508,-0.0263,8.7209,-0.2719,0.0419,9.8028,-0.1173,0.3348,-1.2107,18.6,-21.0,-20.3,221.4,-0.24,1.59,36.814095,-119.74785,248.88,336.71549362204377,3.33,19.35484,272.63,0 / 0,6785,2015-10-30 10:49:19:790
-1.6149,0.0144,9.6235,-0.5191,0.0108,9.7929,0.0367,0.1429,-0.595,19.3,-20.0,-20.1,222.1,-0.07,2.67,36.814095,-119.74785,248.88,336.71549362204377,3.33,19.35484,272.63,0 / 0,6887,2015-10-30 10:49:19:892
-0.3675,0.0323,9.0082,-0.3235,0.1014,9.8008,0.0855,-0.2016,-0.2957,21.2,-18.1,-20.4,228.82,-0.59,1.89,36.814095,-119.74785,248.88,336.71549362204377,3.33,19.35484,272.63,0 / 0,6989,2015-10-30 10:49:19:994
-0.7721,0.3651,9.3972,-0.2646,0.0841,9.8027,-0.0452,-0.0183,-0.3738,21.8,-17.1,-20.2,231.95,-0.53,1.47,36.814095,-119.74785,248.88,336.71549362204377,3.33,19.35484,272.63,0 / 0,7091,2015-10-30 10:49:20:096
-0.6165,0.5315,9.4284,-0.2866,0.0702,9.8022,-0.0293,-0.0696,-0.1307,22.2,-16.3,-20.6,233.45,-0.41,1.67,36.814095,-119.74785,248.88,336.71549362204377,3.33,19.35484,272.63,0 / 0,7193,2015-10-30 10:49:20:198
-0.4178,1.0235,9.8246,-0.2881,-0.1157,9.8017,-0.2859,-0.0049,-0.1979,22.4,-15.4,-21.1,234.74,0.28,1.69,36.814095,-119.74785,248.88,336.71549362204377,3.33,19.35484,272.63,0 / 0,7295,2015-10-30 10:49:20:300
-0.0311,1.4653,10.1754,-0.2346,-0.3465,9.7977,-0.2981,0.0257,-0.1698,22.7,-14.7,-21.7,235.15,1.58,1.46,36.814095,-119.74785,248.88,336.71549362204377,3.33,19.35484,272.63,0 / 0,7397,2015-10-30 10:49:20:402
-0.395,1.4629,9.5708,-0.2615,-0.4636,9.7922,-0.0941,0.0171,-0.0709,23.0,-13.4,-22.4,237.9,2.71,1.53,36.814095,-119.74785,248.88,336.71549362204377,3.33,19.35484,272.63,0 / 0,7499,2015-10-30 10:49:20:504
-0.1185,1.4569,9.9826,-0.2522,-0.2049,9.8013,0.0696,-0.0342,-0.0599,23.1,-12.6,-22.9,238.48,1.72,1.59,36.814095,-119.74785,248.88,336.71549362204377,3.33,19.35484,272.63,0 / 0,7601,2015-10-30 10:49:20:606
-0.5004,1.2163,9.9288,-0.3295,0.0891,9.8007,0.1906,-0.0501,-0.0892,22.7,-11.8,-24.2,241.63,-0.07,1.96,36.814095,-119.74785,248.88,336.71549362204377,3.33,19.35484,272.63,0 / 0,7703,2015-10-30 10:49:20:708
-1.2773,0.7111,10.003,-0.3172,0.3296,9.796,0.3091,0.0538,0.0501,22.0,-11.8,-25.3,241.72,-1.27,1.71,36.814095,-119.74785,248.88,336.71549362204377,3.33,19.35484,272.63,0 / 0,7805,2015-10-30 10:49:20:810
-0.7063,-1.0175,9.9072,-0.1037,0.367,9.7992,0.4068,-0.0562,0.0696,19.2,-12.6,-27.2,236.62,-1.49,0.74,36.814095,-119.74785,248.88,336.71549362204377,3.33,19.35484,272.63,0 / 0,7907,2015-10-30 10:49:20:912
-0.7159,-0.2263,8.7616,-0.0448,0.5623,9.7904,-0.0892,0.2162,-0.1136,14.4,-14.4,-28.1,228.4,-3.3,0.16,36.814095,-119.74785,248.88,336.71549362204377,3.33,19.35484,272.63,0 / 0,8009,2015-10-30 10:49:21:014
-1.2605,0.4896,8.3318,-0.0764,0.5329,9.7919,0.055,-0.1332,-0.1295,10.6,-16.4,-28.9,216.34,-2.98,0.71,36.814095,-119.74785,248.88,336.71549362204377,3.33,19.35484,272.63,0 / 0,8111,2015-10-30 10:49:21:116
-0.6847,0.8152,8.5868,0.0164,0.6285,9.7865,0.0965,-0.0929,0.0574,6.0,-17.4,-29.1,201.23,-3.44,0.16,36.814095,-119.74785,248.88,336.71549362204377,3.33,19.35484,272.63,0 / 0,8213,2015-10-30 10:49:21:218
-1.0618,0.3962,11.2085,0.1079,0.62,9.7864,-0.1014,-0.1429,-0.0428,-0.5,-18.1,-29.7,181.18,-3.62,-0.63,36.814095,-119.74785,248.88,336.71549362204377,3.33,19.35484,272.63,0 / 0,8315,2015-10-30 10:49:21:320
1.1133,0.0862,9.9826,0.2714,0.6056,9.7842,-0.7856,-0.3225,-0.3348,-4.7,-18.7,-28.2,165.4,-3.87,-1.13,36.814095,-119.74785,248.88,336.71549362204377,3.33,19.35484,272.63,0 / 0,8417,2015-10-30 10:49:21:422
1.1636,0.2131,7.7656,0.1929,0.3175,9.7996,0.3824,0.3946,-0.0929,-8.6,-18.4,-28.0,153.68,-1.86,-1.13,36.814095,-119.74785,248.88,336.71549362204377,3.33,19.35484,272.63,0 / 0,8519,2015-10-30 10:49:21:524
0.5351,-0.5399,10.1897,0.0939,0.51,9.7929,-0.0476,0.2615,-0.3311,-9.6,-18.4,-28.5,150.25,-3.23,-1.3,36.814095,-119.74785,248.88,336.71549362204377,3.33,19.35484,272.63,0 / 0,8621,2015-10-30 10:49:21:626
-0.2598,0.7434,6.6475,-0.2441,0.6931,9.7791,0.1087,0.1772,-0.1136,-12.6,-18.5,-28.6,140.1,-3.72,0.9,36.814095,-119.74785,248.88,336.71549362204377,3.33,19.35484,272.63,0 / 0,8722,2015-10-30 10:49:21:727
-0.3244,0.8033,8.7041,-0.3097,0.6721,9.7787,-0.0452,-0.0012,-0.1295,-13.9,-18.9,-28.5,138.89,-4.11,1.67,36.814095,-119.74785,248.88,336.71549362204377,3.33,19.35484,272.63,0 / 0,8825,2015-10-30 10:49:21:830
-0.6273,0.7925,10.2208,-0.3687,0.7089,9.774,0.0867,0.0257,0.2101,-15.7,-19.2,-28.9,134.87,-3.99,2.12,36.814095,-119.74785,248.88,336.71549362204377,3.33,19.35484,272.63,0 / 0,8927,2015-10-30 10:49:21:932
0.4238,-1.0965,13.9319,-0.2151,0.7984,9.7717,-0.0916,-0.4814,0.1747,-17.2,-19.1,-28.8,133.08,-4.52,1.7,36.814095,-119.74785,248.88,336.71549362204377,3.33,19.35484,272.63,0 / 0,9029,2015-10-30 10:49:22:034
-0.3974,-0.3915,9.73,0.1934,0.845,9.7683,0.3787,-0.4447,0.281,-19.6,-18.4,-28.7,128.69,-4.4,-0.77,36.814095,-119.74785,248.88,336.71549362204377,3.33,19.35484,272.63,0 / 0,9131,2015-10-30 10:49:22:136
-0.4154,-0.31,7.8949,0.3821,0.9697,9.7511,0.0867,-0.0391,-0.0073,-21.2,-17.6,-28.5,127.14,-5.67,-2.24,36.814095,-119.74785,248.88,336.71549362204377,3.33,19.35484,272.63,0 / 0,9232,2015-10-30 10:49:22:237
-0.1161,0.2693,8.2265,0.4273,1.0477,9.7412,0.022,0.0941,-0.1295,-21.4,-17.4,-28.5,124.98,-6.05,-2.38,36.814095,-119.74785,248.88,336.71549362204377,3.33,19.35484,272.63,0 / 0,9335,2015-10-30 10:49:22:340
-0.5411,0.9385,7.6243,0.3333,1.0799,9.7413,-0.0061,-0.044,-0.0929,-20.7,-17.8,-28.8,126.17,-6.32,-1.96,36.814095,-119.74785,248.88,336.71549362204377,3.33,19.35484,272.63,0 / 0,9437,2015-10-30 10:49:22:442
-0.2993,0.6009,10.1095,0.3783,1.0329,9.7448,-0.0819,-0.1051,-0.1185,-19.6,-17.7,-28.2,128.19,-6.06,-2.23,36.814095,-119.74785,248.88,336.71549362204377,3.33,19.35484,272.63,0 / 0,9540,2015-10-30 10:49:22:545
-0.0383,0.3136,11.7819,0.4776,1.1856,9.723,0.1393,-0.2456,-0.0709,-18.7,-17.1,-26.8,127.64,-6.27,-2.12,36.814095,-119.74785,248.88,336.71549362204377,3.33,19.35484,272.63,0 / 0,9641,2015-10-30 10:49:22:646
-1.1708,-1.2917,14.1557,0.4336,0.8045,9.764,-0.2175,0.3702,-0.3641,-17.6,-16.7,-26.0,130.41,-5.91,-3.03,36.814095,-119.74785,248.88,336.71549362204377,3.33,19.35484,272.63,0 / 0,9743,2015-10-30 10:49:22:748
1.3216,0.4381,8.1271,0.3672,1.0376,9.7447,0.3971,-0.1258,0.0195,-16.3,-16.8,-25.8,133.35,-5.68,-1.86,36.814095,-119.74785,248.88,336.71549362204377,3.33,19.35484,272.63,0 / 0,9845,2015-10-30 10:49:22:850
-0.1879,-0.4274,8.6347,0.2874,0.9653,9.7548,0.0562,0.1466,-0.2578,-13.8,-18.2,-26.9,139.4,-5.54,-1.93,36.814095,-119.74785,248.88,336.71549362204377,3.33,19.35484,272.63,0 / 0,9947,2015-10-30 10:49:22:952
-0.2586,-0.6716,9.0944,0.2385,0.9734,9.7553,0.0305,0.0428,-0.0489,-12.0,-19.0,-27.1,145.13,-5.75,-1.55,36.814095,-119.74785,248.88,336.71549362204377,3.33,19.35484,272.63,0 / 0,10049,2015-10-30 10:49:23:054
-0.0611,-0.4621,9.6881,0.2269,0.7549,9.7749,0.0574,0.0232,0.1625,-10.0,-20.4,-27.3,152.11,-4.92,-1.46,36.814095,-119.74785,248.88,336.71549362204377,3.33,19.35484,272.63,0 / 0,10151,2015-10-30 10:49:23:156
0.2119,0.0491,9.5134,0.2597,0.6535,9.7814,-0.0757,-0.0354,0.1539,-8.8,-21.3,-27.9,156.1,-4.21,-1.3,36.814095,-119.74785,248.88,336.71549362204377,3.33,19.35484,272.63,0 / 0,10252,2015-10-30 10:49:23:257
0.322,0.498,8.6981,0.2549,0.5822,9.786,0.0269,0.0342,0.0806,-8.5,-21.6,-28.2,160.36,-3.38,-1.54,36.814095,-119.74785,248.88,336.71549362204377,3.33,19.35484,272.63,0 / 0,10355,2015-10-30 10:49:23:360
-0.1077,-0.0491,9.7624,0.245,0.4132,9.7949,-0.2199,0.0354,-0.237,-8.3,-21.6,-28.6,160.64,-2.98,-1.61,36.814095,-119.74785,248.88,336.71549362204377,3.33,19.35484,272.63,0 / 0,10457,2015-10-30 10:49:23:462
-0.0515,-0.0287,9.6403,0.1803,0.2419,9.802,-0.1637,0.0782,-0.248,-8.0,-21.3,-28.8,159.79,-1.71,-1.17,36.814095,-119.74785,248.88,336.71549362204377,3.33,19.35484,272.63,0 / 0,10559,2015-10-30 10:49:23:564
1.3264,0.2191,10.4651,0.1592,0.1113,9.8047,-0.0489,0.0415,-0.4117,-7.4,-20.7,-29.5,162.47,-0.65,-0.93,36.814095,-119.74785,248.88,336.71549362204377,3.33,19.35484,272.63,0 / 0,10661,2015-10-30 10:49:23:666
2.1823,0.0874,10.6889,-0.1114,0.0706,9.8058,0.0733,0.4545,-1.1716,-6.6,-20.3,-29.6,160.92,-0.57,-0.35,36.814095,-119.74785,248.88,336.71549362204377,3.33,19.35484,272.63,0 / 0,10763,2015-10-30 10:49:23:768
2.4852,-0.51,10.0736,-0.5591,0.3419,9.7847,0.3836,0.2908,-1.5443,-4.3,-19.9,-29.6,164.57,-1.42,2.52,36.814095,-119.74785,248.88,336.71549362204377,3.33,19.35484,272.63,0 / 0,10864,2015-10-30 10:49:23:869
1.9369,-0.7242,9.2703,-0.6619,0.7269,9.7572,0.6548,-0.0452,-2.1845,-0.8,-19.6,-28.6,170.73,-3.47,3.91,36.814095,-119.74785,248.88,336.71549362204377,3.33,19.35484,272.63,0 / 0,10967,2015-10-30 10:49:23:972
0.6752,-1.3348,9.2751,-0.3878,1.1338,9.7332,0.4667,-0.4056,-2.5693,2.1,-18.3,-25.0,182.82,-5.88,2.85,36.814095,-119.74785,248.88,336.71549362204377,3.33,19.35484,272.63,0 / 0,11069,2015-10-30 10:49:24:074
0.2298,-2.3667,10.6614,0.0411,1.4084,9.7049,0.3653,-0.8931,-2.8808,2.1,-17.2,-21.7,186.05,-7.28,1.32,36.814095,-119.74785,248.88,336.71549362204377,3.33,19.35484,272.63,0 / 0,11171,2015-10-30 10:49:24:176
0.5315,-2.7605,10.8793,0.3836,1.6375,9.6614,0.1735,-0.9285,-3.1484,1.6,-18.4,-11.9,188.92,-9.61,-2.27,36.814095,-119.74785,248.88,336.71549362204377,3.33,19.35484,272.63,0 / 0,11273,2015-10-30 10:49:24:278
-0.6009,-3.6296,11.3222,0.4437,1.7146,9.6454,-0.0147,-0.6377,-3.3219,6.2,-19.4,-6.4,199.53,-10.06,-2.76,36.814095,-119.74785,248.88,336.71549362204377,3.33,19.35484,272.63,0 / 0,11375,2015-10-30 10:49:24:380
-0.2334,-3.3351,9.73,0.4137,1.8602,9.6197,-0.11,-0.5596,-3.2962,15.8,-16.6,-6.1,226.04,-11.03,-2.72,36.814095,-119.74785,248.88,336.71549362204377,3.33,19.35484,272.63,0 / 0,11477,2015-10-30 10:49:24:482
-0.6153,-2.9939,9.578,0.3608,1.7249,9.647,-0.2712,-0.5705,-3.2217,21.5,-8.8,-12.0,253.12,-10.54,-2.22,36.814095,-119.74785,248.88,336.71549362204377,3.33,19.35484,272.63,0 / 0,11579,2015-10-30 10:49:24:584
-1.6185,-1.913,8.3953,0.4961,1.4018,9.6933,-0.1234,-0.2553,-2.6463,21.6,1.0,-17.0,278.18,-8.43,-3.22,36.814095,-119.74785,248.88,336.71549362204377,3.33,19.35484,272.63,0 / 0,11681,2015-10-30 10:49:24:686
-3.1807,-1.5107,10.0592,0.5039,1.0239,9.74,-0.4288,-0.0183,-1.7141,19.2,6.9,-21.3,294.74,-6.66,-3.11,36.814095,-119.74785,248.88,336.71549362204377,3.33,19.35484,272.63,0 / 0,11783,2015-10-30 10:49:24:788
-2.575,0.5746,9.8761,0.3995,0.7169,9.7722,-0.3323,-0.2175,-0.931,17.5,11.0,-22.9,303.65,-4.19,-2.34,36.814095,-119.74785,248.88,336.71549362204377,3.33,19.35484,272.63,0 / 0,11885,2015-10-30 10:49:24:890
-0.8368,1.0415,10.2244,0.3691,0.4888,9.7875,-0.1747,-0.11,-0.3665,17.4,11.7,-23.1,306.67,-3.27,-2.04,36.814095,-119.74785,248.88,336.71549362204377,3.33,19.35484,272.63,0 / 0,11987,2015-10-30 10:49:24:992
-0.1437,0.5578,9.1913,0.2732,0.5282,9.7886,0.0855,0.0171,-0.0171,16.8,13.0,-23.6,308.69,-2.93,-1.7,36.814095,-119.74785,248.88,336.71549362204377,3.33,19.35484,272.63,0 / 0,12088,2015-10-30 10:49:25:093
0.3148,0.8595,8.8442,0.2078,0.5235,9.7905,-0.2724,-0.0721,-0.1038,16.6,13.9,-24.2,311.05,-3.06,-1.22,36.814095,-119.74785,248.88,336.71549362204377,3.33,19.35484,272.63,0 / 0,12191,2015-10-30 10:49:25:196
0.0479,1.1492,9.0369,0.2636,0.1511,9.8019,-0.3946,-0.0098,-0.0586,16.6,14.3,-24.6,309.7,-1.49,-1.45,36.814095,-119.74785,248.88,336.71549362204377,3.33,19.35484,272.63,0 / 0,12293,2015-10-30 10:49:25:298
0.1556,1.7442,10.3681,0.3217,-0.1557,9.8001,-0.3152,-0.0415,0.011,16.9,15.1,-24.2,309.86,0.43,-1.82,36.814095,-119.74785,248.88,336.71549362204377,3.33,19.35484,272.63,0 / 0,12395,2015-10-30 10:49:25:400
0.164,2.0877,9.7827,0.2508,-0.2371,9.8006,-0.0648,0.1735,-0.0049,17.3,15.8,-23.7,311.05,1.23,-1.92,36.814095,-119.74785,248.88,336.71549362204377,3.33,19.35484,272.63,0 / 0,12496,2015-10-30 10:49:25:501
-0.723,0.3208,11.2288,0.1135,-0.215,9.8036,0.1026,0.1161,-0.0757,18.1,16.3,-22.5,310.37,1.26,-0.66,36.814095,-119.74785,248.88,336.71549362204377,3.33,19.35484,272.63,0 / 0,12599,2015-10-30 10:49:25:604
0.5076,-0.4956,10.3848,0.1477,-0.0289,9.8055,0.0623,-0.1051,0.1466,18.5,16.3,-21.9,309.57,0.36,-0.51,36.814095,-119.74785,248.88,336.71549362204377,3.33,19.35484,272.63,0 / 0,12701,2015-10-30 10:49:25:706
0.2035,-0.0982,9.1447,0.0731,0.0626,9.8062,0.4093,-0.1564,0.2639,18.4,16.0,-21.1,311.17,0.38,-0.37,36.814095,-119.74785,248.88,336.71549362204377,3.33,19.35484,272.63,0 / 0,12803,2015-10-30 10:49:25:808
0.3687,0.1018,8.3965,0.1215,0.3031,9.8012,0.2101,0.0379,0.0415,17.7,15.8,-20.9,312.12,-1.5,-0.8,36.814095,-119.74785,248.88,336.71549362204377,3.33,19.35484,272.63,0 / 0,12905,2015-10-30 10:49:25:910
-0.1927,0.3855,7.5812,0.1542,0.6144,9.7862,0.3348,0.0476,0.0244,15.9,15.4,-21.1,314.52,-3.07,-0.98,36.814095,-119.74785,248.88,336.71549362204377,3.33,19.35484,272.63,0 / 0,13007,2015-10-30 10:49:26:012
0.0922,0.6847,8.7197,0.2905,0.773,9.7718,0.1136,-0.1234,-0.0916,14.1,15.0,-21.3,318.73,-4.29,-1.33,36.814095,-119.74785,248.88,336.71549362204377,3.33,19.35484,272.63,0 / 0,13109,2015-10-30 10:49:26:114
0.6632,0.4645,10.2029,0.5053,0.8327,9.7582,0.033,-0.0513,-0.2639,10.3,14.5,-21.8,326.82,-4.85,-2.53,36.814095,-119.74785,248.88,336.71549362204377,3.33,19.35484,272.63,0 / 0,13210,2015-10-30 10:49:26:215
1.2773,-0.6692,13.2088,0.6771,0.5402,9.7683,-0.5986,-0.3409,-0.6182,6.0,14.8,-21.5,336.07,-4.18,-3.59,36.814095,-119.74785,248.88,336.71549362204377,3.33,19.35484,272.63,0 / 0,13313,2015-10-30 10:49:26:318
0.7446,-0.1125,8.4862,0.3229,0.4748,9.7898,0.0843,0.1796,-0.3274,1.3,14.8,-21.7,352.61,-2.41,-2.77,36.814095,-119.74785,248.88,336.71549362204377,3.33,19.35484,272.63,0 / 0,13415,2015-10-30 10:49:26:420
-0.1137,0.3591,7.0306,0.041,0.5022,9.7937,0.1698,0.2541,0.0318,-2.1,14.3,-21.6,6.52,-2.6,-0.75,36.814095,-119.74785,248.88,336.71549362204377,3.33,19.35484,272.63,0 / 0,13517,2015-10-30 10:49:26:522
-0.3053,0.8332,7.8662,0.0012,0.5753,9.7898,0.0257,-0.0305,0.1344,-4.8,13.6,-21.8,18.46,-3.32,0.24,36.814095,-119.74785,248.88,336.71549362204377,3.33,19.35484,272.63,0 / 0,13619,2015-10-30 10:49:26:624
-0.3723,0.4597,10.6075,0.098,0.5222,9.7922,-0.1197,-0.0195,0.2492,-10.5,11.5,-20.8,36.76,-3.05,-0.57,36.814095,-119.74785,248.88,336.71549362204377,3.33,19.35484,272.63,0 / 0,13721,2015-10-30 10:49:26:726
0.0503,0.7242,11.382,0.1316,0.6363,9.7851,0.2272,-0.099,0.6707,-14.5,10.5,-19.9,48.67,-3.32,-0.54,36.814095,-119.74785,248.88,336.71549362204377,3.33,19.35484,272.63,0 / 0,13822,2015-10-30 10:49:26:827
-0.5507,-1.7968,13.6062,0.5552,0.5652,9.7746,-0.4032,-0.5644,0.2248,-18.9,9.5,-18.8,58.24,-3.57,-2.59,36.814095,-119.74785,248.88,336.71549362204377,3.33,19.35484,272.63,0 / 0,13925,2015-10-30 10:49:26:930
1.1241,-0.0994,9.2871,0.8494,0.8779,9.7303,0.3274,-0.463,0.3311,-20.8,9.0,-18.2,61.77,-4.64,-4.14,36.814095,-119.74785,248.88,336.71549362204377,3.33,19.35484,272.63,0 / 0,14027,2015-10-30 10:49:27:032
0.3687,-0.0443,7.9811,0.801,0.9258,9.7299,0.1857,0.0037,-0.0195,-22.6,8.9,-17.3,63.55,-5.15,-4.98,36.814095,-119.74785,248.88,336.71549362204377,3.33,19.35484,272.63,0 / 0,14129,2015-10-30 10:49:27:134
0.1508,0.2191,7.8757,0.7607,1.0985,9.7152,0.1161,0.0012,-0.0916,-24.6,9.0,-15.7,65.3,-6.21,-4.5,36.814095,-119.74785,248.88,336.71549362204377,3.33,19.35484,272.63,0 / 0,14231,2015-10-30 10:49:27:236
0.2717,0.3615,9.3709,0.7704,1.1836,9.7044,0.0977,-0.0428,-0.1161,-25.5,9.1,-14.2,65.49,-6.93,-4.54,36.814095,-119.74785,248.88,336.71549362204377,3.33,19.35484,272.63,0 / 0,14333,2015-10-30 10:49:27:338
0.7865,0.3675,9.7648,0.6302,1.2507,9.7061,0.1723,0.2285,-0.0611,-25.8,9.1,-12.8,66.73,-7.33,-3.71,36.814095,-119.74785,248.88,336.71549362204377,3.33,19.35484,272.63,0 / 0,14435,2015-10-30 10:49:27:440
0.17,-0.7278,13.2866,0.6315,1.0852,9.7259,-0.3531,0.2468,-0.3567,-25.8,9.2,-11.6,67.44,-6.35,-3.71,36.814095,-119.74785,248.88,336.71549362204377,3.33,19.35484,272.63,0 / 0,14537,2015-10-30 10:49:27:542
0.8835,0.0754,9.7252,0.4203,0.9632,9.7502,0.1723,0.1197,0.0635,-25.6,9.6,-10.8,66.4,-5.64,-2.47,36.814095,-119.74785,248.88,336.71549362204377,3.33,19.35484,272.63,0 / 0,14639,2015-10-30 10:49:27:644
0.6955,-0.3831,8.6323,0.4263,1.1158,9.7336,0.121,0.204,-0.0929,-24.8,10.3,-10.5,65.49,-6.28,-2.78,36.814095,-119.74785,248.88,336.71549362204377,3.33,19.35484,272.63,0 / 0,14741,2015-10-30 10:49:27:746
0.6548,-0.4286,8.3725,0.2274,1.1679,9.7342,-0.1625,0.1014,-0.1747,-23.8,11.2,-11.0,62.48,-6.94,-1.67,36.814095,-119.74785,248.88,336.71549362204377,3.33,19.35484,272.63,0 / 0,14843,2015-10-30 10:49:27:848
-0.4908,-0.5483,9.7624,0.0939,0.9518,9.7599,-0.1796,0.1564,-0.1222,-22.7,12.2,-11.4,60.35,-5.57,-0.55,36.814095,-119.74785,248.88,336.71549362204377,3.33,19.35484,272.63,0 / 0,14945,2015-10-30 10:49:27:950
0.0383,0.2155,9.2919,0.0568,0.9581,9.7596,0.1564,0.0428,0.4398,-22.2,12.8,-11.6,57.37,-5.24,-0.27,36.814095,-119.74785,248.88,336.71549362204377,3.33,19.35484,272.63,0 / 0,15047,2015-10-30 10:49:28:052
-0.1365,-0.0431,9.8474,0.1698,0.8853,9.7651,-0.066,0.0232,0.3067,-21.5,14.0,-11.2,54.21,-5.41,-0.95,36.814095,-119.74785,248.88,336.71549362204377,3.33,19.35484,272.63,0 / 0,15148,2015-10-30 10:49:28:153
0.2777,0.7985,9.0142,0.1492,0.841,9.7694,-0.0464,0.0623,0.2602,-21.0,14.7,-10.9,52.58,-5.0,-0.92,36.814095,-119.74785,248.88,336.71549362204377,3.33,19.35484,272.63,0 / 0,15251,2015-10-30 10:49:28:256
-0.4812,0.2658,9.8749,0.0341,0.5889,9.7889,-0.1808,0.1466,0.0086,-20.3,15.9,-10.6,50.03,-3.75,-0.43,36.814095,-119.74785,248.88,336.71549362204377,3.33,19.35484,272.63,0 / 0,15353,2015-10-30 10:49:28:358
0.4178,0.6859,11.1654,0.0791,0.5527,9.7907,-0.0257,-0.1319,0.1698,-19.7,16.8,-10.3,48.62,-3.23,-0.46,36.814095,-119.74785,248.88,336.71549362204377,3.33,19.35484,272.63,0 / 0,15454,2015-10-30 10:49:28:459
-0.3196,0.5914,9.1806,-0.1327,0.6811,9.7821,0.0489,-0.088,0.1173,-19.4,17.1,-10.2,47.25,-3.87,0.39,36.814095,-119.74785,248.88,336.71549362204377,3.33,19.35484,272.63,0 / 0,15557,2015-10-30 10:49:28:562
-0.164,0.5854,9.4475,0.0388,0.7876,9.7749,0.1454,-0.2199,0.1454,-19.1,17.4,-10.4,46.91,-4.58,-0.15,36.814095,-119.74785,248.88,336.71549362204377,3.33,19.35484,272.63,0 / 0,15659,2015-10-30 10:49:28:664
-0.0072,0.6069,9.7683,0.0735,0.7806,9.7753,0.0525,-0.1429,0.0134,-18.9,17.5,-10.5,45.35,-4.5,-0.2,36.814095,-119.74785,248.88,336.71549362204377,3.33,19.35484,272.63,0 / 0,15761,2015-10-30 10:49:28:766
-0.2035,0.5291,9.9467,0.1088,0.7341,9.7785,-0.0586,0.0525,-0.0354,-18.8,17.7,-10.4,45.15,-4.53,-0.82,36.814095,-119.74785,248.88,336.71549362204377,3.33,19.35484,272.63,0 / 0,15863,2015-10-30 10:49:28:868
-0.067,0.6105,8.983,0.2075,0.7511,9.7756,0.0648,-0.1845,-0.0293,-18.8,17.7,-10.1,45.23,-4.31,-0.75,36.814095,-119.74785,248.88,336.71549362204377,3.33,19.35484,272.63,0 / 0,15965,2015-10-30 10:49:28:970