ACCELEROMETER X (m/s²),ACCELEROMETER Y (m/s²),ACCELEROMETER Z (m/s²),GRAVITY X (m/s²),GRAVITY Y (m/s²),GRAVITY Z (m/s²),GYROSCOPE X (rad/s),GYROSCOPE Y (rad/s),GYROSCOPE Z (rad/s),MAGNETIC FIELD X (μT),MAGNETIC FIELD Y (μT),MAGNETIC FIELD Z (μT),ORIENTATION Z (azimuth °),ORIENTATION X (pitch °),ORIENTATION Y (roll °),LOCATION Latitude : ,LOCATION Longitude : ,LOCATION Altitude ( m),LOCATION Altitude-google ( m),LOCATION Speed ( Kmh),LOCATION Accuracy ( m),LOCATION ORIENTATION (°),Satellites in range,Time since start in ms ,YYYY-MO-DD HH-MI-SS_SSS
-0.6261,-0.504,9.5529,-0.2781,-0.8591,9.765,0.0489,-0.0122,0.0721,-45.6,56.8,-7.1,39.38,5.19,1.64,36.814095,-119.74785,248.88,336.71549362204377,3.33,19.35484,272.63,0 / 0,44,2015-10-30 10:48:32:367
-0.4836,-0.4764,9.3362,-0.1796,-0.7369,9.7773,0.0953,-0.1381,0.1747,-45.5,55.6,-8.5,39.26,4.55,1.28,36.814095,-119.74785,248.88,336.71549362204377,3.33,19.35484,272.63,0 / 0,147,2015-10-30 10:48:32:470
-0.5183,-0.4764,9.9814,-0.1857,-0.7441,9.7766,-0.0501,0.0195,0.1148,-45.2,55.0,-9.0,39.78,4.33,0.92,36.814095,-119.74785,248.88,336.71549362204377,3.33,19.35484,272.63,0 / 0,248,2015-10-30 10:48:32:571
-0.6692,-0.4549,9.8354,-0.2728,-0.7717,9.7724,-0.0867,0.0342,-0.0073,-44.6,54.7,-9.5,39.83,4.44,1.54,36.814095,-119.74785,248.88,336.71549362204377,3.33,19.35484,272.63,0 / 0,350,2015-10-30 10:48:32:673
0.1006,-0.0611,9.6319,-0.2155,-0.6849,9.7803,0.0684,0.0305,0.0305,-43.9,54.8,-9.5,39.15,4.18,1.24,36.814095,-119.74785,248.88,336.71549362204377,3.33,19.35484,272.63,0 / 0,452,2015-10-30 10:48:32:775
-0.7314,-0.5183,9.5864,-0.3278,-0.6696,9.7783,-0.0244,0.121,-0.0806,-43.7,54.7,-9.8,39.22,3.91,1.92,36.814095,-119.74785,248.88,336.71549362204377,3.33,19.35484,272.63,0 / 0,553,2015-10-30 10:48:32:876
-0.5578,-0.4705,9.8366,-0.3706,-0.6623,9.7772,0.0244,-0.0244,0.0183,-43.8,54.5,-10.1,39.24,3.96,2.21,36.814095,-119.74785,248.88,336.71549362204377,3.33,19.35484,272.63,0 / 0,656,2015-10-30 10:48:32:979
-0.583,-0.4369,9.7157,-0.4124,-0.6428,9.7769,0.0122,0.044,-0.0208,-43.9,54.3,-10.5,39.75,3.76,2.27,36.814095,-119.74785,248.88,336.71549362204377,3.33,19.35484,272.63,0 / 0,758,2015-10-30 10:48:33:081
-0.6045,-0.3711,9.7061,-0.3735,-0.5821,9.7822,0.0562,-0.1014,0.033,-44.1,54.0,-11.0,39.81,3.66,2.47,36.814095,-119.74785,248.88,336.71549362204377,3.33,19.35484,272.63,0 / 0,860,2015-10-30 10:48:33:183
-0.5447,-0.2059,9.4475,-0.3295,-0.5249,9.787,0.0452,-0.0305,-0.0024,-44.0,54.1,-11.4,39.72,3.17,2.01,36.814095,-119.74785,248.88,336.71549362204377,3.33,19.35484,272.63,0 / 0,962,2015-10-30 10:48:33:285
-0.6009,-0.2945,9.8653,-0.2973,-0.514,9.7887,-0.022,-0.0415,0.0,-44.1,54.0,-11.9,39.73,2.99,1.79,36.814095,-119.74785,248.88,336.71549362204377,3.33,19.35484,272.63,0 / 0,1064,2015-10-30 10:48:33:387
-0.5602,-0.2466,9.6582,-0.2852,-0.4827,9.7906,0.0305,0.0024,-0.0061,-43.9,53.9,-12.4,39.69,2.82,1.67,36.814095,-119.74785,248.88,336.71549362204377,3.33,19.35484,272.63,0 / 0,1166,2015-10-30 10:48:33:489
-0.4202,-0.1389,9.566,-0.2996,-0.4401,9.7922,0.0269,0.0012,0.0147,-43.9,53.9,-12.7,39.73,2.65,1.75,36.814095,-119.74785,248.88,336.71549362204377,3.33,19.35484,272.63,0 / 0,1267,2015-10-30 10:48:33:590
-0.2562,-0.1532,9.7205,-0.3064,-0.4194,9.7929,-0.0073,0.0122,-0.0098,-43.7,53.9,-12.7,39.7,2.47,1.77,36.814095,-119.74785,248.88,336.71549362204377,3.33,19.35484,272.63,0 / 0,1370,2015-10-30 10:48:33:693
-0.4106,-0.1413,9.5672,-0.3192,-0.4121,9.7928,-0.0061,-0.0073,-0.0428,-43.7,53.9,-12.8,39.71,2.42,1.88,36.814095,-119.74785,248.88,336.71549362204377,3.33,19.35484,272.63,0 / 0,1472,2015-10-30 10:48:33:795
-0.5447,-0.2598,9.9156,-0.2967,-0.4439,9.7921,0.011,-0.0244,-0.0086,-43.5,53.6,-12.9,39.07,2.58,1.73,36.814095,-119.74785,248.88,336.71549362204377,3.33,19.35484,272.63,0 / 0,1574,2015-10-30 10:48:33:897
-0.3819,-0.1496,9.7624,-0.272,-0.4198,9.7939,0.011,-0.0415,0.0257,-43.4,53.3,-13.1,39.59,2.52,1.68,36.814095,-119.74785,248.88,336.71549362204377,3.33,19.35484,272.63,0 / 0,1676,2015-10-30 10:48:33:999
-0.3915,-0.1437,9.8007,-0.2597,-0.3883,9.7955,0.0122,0.0476,0.055,-43.3,53.1,-13.1,39.54,2.31,1.44,36.814095,-119.74785,248.88,336.71549362204377,3.33,19.35484,272.63,0 / 0,1778,2015-10-30 10:48:34:101
-0.2777,0.0251,9.3841,-0.2752,-0.317,9.7977,0.0489,0.011,-0.0159,-43.1,53.1,-13.1,39.51,1.97,1.59,36.814095,-119.74785,248.88,336.71549362204377,3.33,19.35484,272.63,0 / 0,1880,2015-10-30 10:48:34:203
-0.425,-0.158,9.9048,-0.2637,-0.3126,9.7981,-0.022,-0.0159,-0.0501,-43.0,52.9,-13.3,39.49,1.84,1.53,36.814095,-119.74785,248.88,336.71549362204377,3.33,19.35484,272.63,0 / 0,1981,2015-10-30 10:48:34:304
-0.3986,-0.1245,9.6175,-0.2527,-0.2793,9.7994,-0.0012,-0.0403,-0.0195,-43.0,52.4,-13.8,40.03,1.63,1.48,36.814095,-119.74785,248.88,336.71549362204377,3.33,19.35484,272.63,0 / 0,2084,2015-10-30 10:48:34:407
-0.5722,-0.2693,9.8019,-0.2385,-0.3096,9.7989,-0.0232,0.0012,-0.0061,-43.3,52.2,-14.1,40.02,1.71,1.32,36.814095,-119.74785,248.88,336.71549362204377,3.33,19.35484,272.63,0 / 0,2186,2015-10-30 10:48:34:509
-0.3867,-0.1018,9.4942,-0.2529,-0.3027,9.7987,0.0159,0.0086,0.0623,-43.6,51.9,-14.3,40.69,1.82,1.44,36.814095,-119.74785,248.88,336.71549362204377,3.33,19.35484,272.63,0 / 0,2288,2015-10-30 10:48:34:611
-0.3711,-0.1269,9.8342,-0.2367,-0.3302,9.7982,-0.0538,0.0073,0.0098,-43.6,51.7,-14.6,40.72,1.87,1.35,36.814095,-119.74785,248.88,336.71549362204377,3.33,19.35484,272.63,0 / 0,2390,2015-10-30 10:48:34:713
-0.3388,-0.0694,9.7971,-0.2684,-0.3387,9.7971,0.0098,0.0257,0.0269,-43.3,51.4,-14.7,40.67,2.01,1.5,36.814095,-119.74785,248.88,336.71549362204377,3.33,19.35484,272.63,0 / 0,2491,2015-10-30 10:48:34:814
-0.4681,-0.2466,9.7588,-0.2704,-0.3063,9.7981,0.011,0.0012,-0.0489,-43.1,51.3,-14.9,40.65,1.79,1.58,36.814095,-119.74785,248.88,336.71549362204377,3.33,19.35484,272.63,0 / 0,2594,2015-10-30 10:48:34:917
-0.5435,-0.2813,9.7636,-0.2759,-0.2987,9.7982,0.0,0.0098,-0.0635,-43.0,51.0,-15.0,40.64,1.74,1.58,36.814095,-119.74785,248.88,336.71549362204377,3.33,19.35484,272.63,0 / 0,2695,2015-10-30 10:48:35:018
-0.5207,-0.2059,9.6522,-0.2847,-0.2944,9.7981,-0.0183,-0.033,-0.0061,-43.3,50.7,-15.5,40.65,1.72,1.66,36.814095,-119.74785,248.88,336.71549362204377,3.33,19.35484,272.63,0 / 0,2798,2015-10-30 10:48:35:121
-0.5076,-0.1353,9.8426,-0.2575,-0.3272,9.7978,-0.0538,-0.0073,0.0293,-43.3,50.4,-16.0,41.25,1.78,1.59,36.814095,-119.74785,248.88,336.71549362204377,3.33,19.35484,272.63,0 / 0,2900,2015-10-30 10:48:35:223
-0.3687,-0.085,9.7719,-0.2619,-0.328,9.7977,-0.0086,0.011,0.0171,-43.3,50.2,-15.7,41.26,1.94,1.5,36.814095,-119.74785,248.88,336.71549362204377,3.33,19.35484,272.63,0 / 0,3002,2015-10-30 10:48:35:325
-0.4357,-0.1927,9.7612,-0.2522,-0.3135,9.7984,0.0159,-0.011,0.0232,-43.1,50.2,-15.5,41.21,1.83,1.47,36.814095,-119.74785,248.88,336.71549362204377,3.33,19.35484,272.63,0 / 0,3104,2015-10-30 10:48:35:427
-0.2358,-0.0515,9.4631,-0.2393,-0.2912,9.7994,0.0,-0.0208,0.0538,-43.1,50.4,-15.2,41.18,1.7,1.4,36.814095,-119.74785,248.88,336.71549362204377,3.33,19.35484,272.63,0 / 0,3206,2015-10-30 10:48:35:529
-0.4537,-0.3352,9.8485,-0.219,-0.3209,9.799,-0.0757,-0.0428,-0.0342,-43.2,50.6,-15.4,40.61,1.75,1.34,36.814095,-119.74785,248.88,336.71549362204377,3.33,19.35484,272.63,0 / 0,3307,2015-10-30 10:48:35:630
-0.3567,-0.3005,9.8569,-0.2319,-0.3764,9.7967,-0.022,0.0024,0.0379,-43.3,50.7,-15.2,40.68,2.2,1.36,36.814095,-119.74785,248.88,336.71549362204377,3.33,19.35484,272.63,0 / 0,3410,2015-10-30 10:48:35:733
-0.2179,-0.1903,9.8761,-0.2273,-0.3754,9.7968,-0.0147,-0.0122,-0.0073,-43.1,50.7,-14.9,40.68,2.18,1.35,36.814095,-119.74785,248.88,336.71549362204377,3.33,19.35484,272.63,0 / 0,3512,2015-10-30 10:48:35:835
-0.4226,-0.2861,9.7648,-0.2284,-0.3657,9.7972,0.0,0.0012,-0.0354,-42.9,50.7,-14.6,40.67,2.14,1.34,36.814095,-119.74785,248.88,336.71549362204377,3.33,19.35484,272.63,0 / 0,3614,2015-10-30 10:48:35:937
-0.4968,-0.31,9.7312,-0.2501,-0.3577,9.7969,0.0061,0.0049,-0.0318,-42.8,50.6,-14.6,40.67,2.11,1.41,36.814095,-119.74785,248.88,336.71549362204377,3.33,19.35484,272.63,0 / 0,3715,2015-10-30 10:48:36:038
-0.3699,-0.158,9.5277,-0.265,-0.345,9.797,0.0073,0.0049,-0.0073,-42.8,50.5,-15.1,40.68,2.04,1.53,36.814095,-119.74785,248.88,336.71549362204377,3.33,19.35484,272.63,0 / 0,3818,2015-10-30 10:48:36:141
-0.4262,-0.2107,9.6235,-0.2726,-0.3506,9.7966,-0.0232,0.0269,-0.022,-42.9,50.5,-15.1,40.69,2.07,1.58,36.814095,-119.74785,248.88,336.71549362204377,3.33,19.35484,272.63,0 / 0,3920,2015-10-30 10:48:36:243
-0.4501,-0.2011,9.6606,-0.3552,-0.3919,9.7924,-0.0745,0.1148,-0.0098,-43.0,50.6,-15.0,40.78,2.29,1.97,36.814095,-119.74785,248.88,336.71549362204377,3.33,19.35484,272.63,0 / 0,4022,2015-10-30 10:48:36:345
-0.5662,-0.2298,9.742,-0.3684,-0.3918,9.7919,-0.0464,0.0415,-0.0159,-43.0,50.5,-14.9,40.78,2.23,2.07,36.814095,-119.74785,248.88,336.71549362204377,3.33,19.35484,272.63,0 / 0,4124,2015-10-30 10:48:36:447
-0.6069,-0.2753,9.7109,-0.3751,-0.3876,9.7918,0.0147,-0.0281,0.0367,-42.9,50.4,-14.5,41.32,2.27,2.16,36.814095,-119.74785,248.88,336.71549362204377,3.33,19.35484,272.63,0 / 0,4226,2015-10-30 10:48:36:549
-0.3783,-0.2155,9.6367,-0.3539,-0.364,9.7935,0.0147,-0.0281,0.0489,-43.0,50.6,-13.9,40.74,2.17,2.12,36.814095,-119.74785,248.88,336.71549362204377,3.33,19.35484,272.63,0 / 0,4328,2015-10-30 10:48:36:651
-0.395,-0.243,9.7504,-0.3118,-0.3526,9.7953,0.011,-0.0501,0.0049,-43.3,51.0,-13.6,40.69,2.05,1.91,36.814095,-119.74785,248.88,336.71549362204377,3.33,19.35484,272.63,0 / 0,4429,2015-10-30 10:48:36:752
-0.3268,-0.2047,9.645,-0.2868,-0.364,9.7957,-0.0159,-0.0159,-0.0061,-43.6,51.4,-13.4,41.29,2.13,1.73,36.814095,-119.74785,248.88,336.71549362204377,3.33,19.35484,272.63,0 / 0,4532,2015-10-30 10:48:36:855
-0.5722,-0.3783,9.6474,-0.323,-0.4182,9.7924,-0.0012,-0.0037,-0.0159,-44.0,51.6,-13.2,40.79,2.44,1.89,36.814095,-119.74785,248.88,336.71549362204377,3.33,19.35484,272.63,0 / 0,4634,2015-10-30 10:48:36:957
-0.4465,-0.2825,9.651,-0.3363,-0.4369,9.7911,-0.0269,0.0049,0.022,-44.3,51.7,-12.7,40.81,2.51,1.94,36.814095,-119.74785,248.88,336.71549362204377,3.33,19.35484,272.63,0 / 0,4736,2015-10-30 10:48:37:059
-0.5327,-0.4345,9.6977,-0.3313,-0.4666,9.7899,-0.022,-0.0134,-0.0049,-44.6,51.8,-11.7,41.41,2.69,1.95,36.814095,-119.74785,248.88,336.71549362204377,3.33,19.35484,272.63,0 / 0,4838,2015-10-30 10:48:37:161
-0.4286,-0.4238,9.7959,-0.321,-0.4832,9.7895,-0.0147,-0.0134,0.0024,-45.0,52.0,-11.4,41.37,2.76,1.89,36.814095,-119.74785,248.88,336.71549362204377,3.33,19.35484,272.63,0 / 0,4941,2015-10-30 10:48:37:264
-0.492,-0.4932,9.7001,-0.3135,-0.4979,9.789,-0.0281,0.0012,-0.011,-45.5,52.1,-10.7,41.38,2.91,1.83,36.814095,-119.74785,248.88,336.71549362204377,3.33,19.35484,272.63,0 / 0,5042,2015-10-30 10:48:37:365
-0.3053,-0.4106,9.5038,-0.2875,-0.5203,9.7886,0.0171,-0.0599,0.0147,-45.8,52.1,-10.2,41.97,3.08,1.84,36.814095,-119.74785,248.88,336.71549362204377,3.33,19.35484,272.63,0 / 0,5144,2015-10-30 10:48:37:467
-0.4214,-0.4764,9.5193,-0.2694,-0.5277,9.7887,0.0073,-0.066,0.0061,-46.1,52.0,-9.2,41.92,3.12,1.65,36.814095,-119.74785,248.88,336.71549362204377,3.33,19.35484,272.63,0 / 0,5246,2015-10-30 10:48:37:569
-0.3268,-0.5064,10.0784,-0.1896,-0.5102,9.7915,0.0147,-0.0904,-0.0428,-46.3,51.9,-8.8,41.88,3.02,1.25,36.814095,-119.74785,248.88,336.71549362204377,3.33,19.35484,272.63,0 / 0,5347,2015-10-30 10:48:37:670
-0.3436,-0.4609,9.6474,-0.1663,-0.4499,9.7949,0.0086,0.0318,0.0,-46.8,51.8,-8.4,42.4,2.63,0.97,36.814095,-119.74785,248.88,336.71549362204377,3.33,19.35484,272.63,0 / 0,5450,2015-10-30 10:48:37:773
-0.3244,-0.395,9.7719,-0.1589,-0.4387,9.7955,-0.0208,-0.0318,0.0183,-47.2,51.6,-8.3,42.39,2.53,0.97,36.814095,-119.74785,248.88,336.71549362204377,3.33,19.35484,272.63,0 / 0,5552,2015-10-30 10:48:37:875
-0.2765,-0.2921,9.5565,-0.1534,-0.4292,9.7961,-0.0037,-0.0134,0.0134,-47.5,51.3,-8.7,42.98,2.54,0.88,36.814095,-119.74785,248.88,336.71549362204377,3.33,19.35484,272.63,0 / 0,5654,2015-10-30 10:48:37:977
-0.3879,-0.3496,9.6055,-0.1528,-0.4305,9.796,0.0012,-0.0086,-0.0037,-47.5,51.1,-8.6,42.98,2.54,0.89,36.814095,-119.74785,248.88,336.71549362204377,3.33,19.35484,272.63,0 / 0,5755,2015-10-30 10:48:38:078
-0.3603,-0.4154,9.6965,-0.1539,-0.429,9.7961,0.0159,-0.0269,0.0269,-47.5,51.0,-9.1,42.98,2.51,0.92,36.814095,-119.74785,248.88,336.71549362204377,3.33,19.35484,272.63,0 / 0,5858,2015-10-30 10:48:38:181
-0.322,-0.4298,9.6415,-0.1422,-0.4397,9.7958,-0.0122,-0.0147,0.0171,-47.4,50.9,-9.6,43.01,2.57,0.83,36.814095,-119.74785,248.88,336.71549362204377,3.33,19.35484,272.63,0 / 0,5959,2015-10-30 10:48:38:282
-0.2682,-0.3065,9.7971,-0.1402,-0.4655,9.7946,-0.0281,-0.0073,0.0257,-47.1,50.9,-9.9,43.02,2.68,0.83,36.814095,-119.74785,248.88,336.71549362204377,3.33,19.35484,272.63,0 / 0,6061,2015-10-30 10:48:38:384
-0.2203,-0.2933,9.8282,-0.1317,-0.4658,9.7947,-0.0012,-0.0098,0.0134,-47.0,51.0,-9.6,43.03,2.73,0.78,36.814095,-119.74785,248.88,336.71549362204377,3.33,19.35484,272.63,0 / 0,6164,2015-10-30 10:48:38:487
-0.2789,-0.3639,9.657,-0.1379,-0.4382,9.7959,0.0171,0.0281,-0.0049,-46.7,51.1,-9.0,42.97,2.56,0.81,36.814095,-119.74785,248.88,336.71549362204377,3.33,19.35484,272.63,0 / 0,6265,2015-10-30 10:48:38:588
-0.4776,-0.4717,9.8342,-0.1694,-0.4333,9.7956,0.0037,0.0012,-0.0232,-46.6,51.2,-8.7,42.98,2.51,0.91,36.814095,-119.74785,248.88,336.71549362204377,3.33,19.35484,272.63,0 / 0,6368,2015-10-30 10:48:38:691
-0.2801,-0.3136,9.7612,-0.1865,-0.4171,9.796,-0.0061,0.0037,0.0281,-46.8,51.4,-8.9,42.98,2.44,1.07,36.814095,-119.74785,248.88,336.71549362204377,3.33,19.35484,272.63,0 / 0,6470,2015-10-30 10:48:38:793
-0.316,-0.3232,9.6367,-0.2296,-0.4272,9.7947,-0.0354,0.0525,0.0024,-47.0,51.6,-9.4,42.43,2.45,1.25,36.814095,-119.74785,248.88,336.71549362204377,3.33,19.35484,272.63,0 / 0,6572,2015-10-30 10:48:38:895
-0.407,-0.3891,9.6546,-0.1989,-0.4292,9.7952,-0.0257,-0.0403,0.0037,-47.1,51.7,-9.6,42.47,2.48,1.2,36.814095,-119.74785,248.88,336.71549362204377,3.33,19.35484,272.63,0 / 0,6674,2015-10-30 10:48:38:997
-0.3256,-0.3567,9.7264,-0.1439,-0.4331,9.796,0.0086,-0.0672,0.0257,-47.2,51.7,-9.6,42.45,2.53,0.84,36.814095,-119.74785,248.88,336.71549362204377,3.33,19.35484,272.63,0 / 0,6776,2015-10-30 10:48:39:099
-0.176,-0.2394,9.5876,-0.1176,-0.425,9.7967,0.011,-0.0379,0.0195,-47.3,51.7,-9.5,42.41,2.51,0.75,36.814095,-119.74785,248.88,336.71549362204377,3.33,19.35484,272.63,0 / 0,6878,2015-10-30 10:48:39:201
-0.3292,-0.3867,9.5397,-0.1159,-0.4275,9.7966,-0.0293,-0.0147,-0.0293,-47.6,51.8,-8.6,43.0,2.5,0.68,36.814095,-119.74785,248.88,336.71549362204377,3.33,19.35484,272.63,0 / 0,6980,2015-10-30 10:48:39:303
-0.322,-0.4322,9.754,-0.1117,-0.4511,9.7956,-0.011,-0.0134,-0.0037,-47.9,51.9,-8.2,42.98,2.63,0.64,36.814095,-119.74785,248.88,336.71549362204377,3.33,19.35484,272.63,0 / 0,7082,2015-10-30 10:48:39:405
-0.2538,-0.3723,9.6295,-0.1267,-0.4521,9.7954,0.0208,-0.011,0.0269,-48.3,52.2,-7.4,42.96,2.69,0.73,36.814095,-119.74785,248.88,336.71549362204377,3.33,19.35484,272.63,0 / 0,7184,2015-10-30 10:48:39:507
-0.2047,-0.34,9.7109,-0.131,-0.4465,9.7956,0.0061,0.0098,0.0012,-48.4,52.3,-6.9,42.95,2.61,0.77,36.814095,-119.74785,248.88,336.71549362204377,3.33,19.35484,272.63,0 / 0,7286,2015-10-30 10:48:39:609
-0.3041,-0.4226,9.6594,-0.1409,-0.4389,9.7958,-0.0024,0.0024,-0.0061,-48.5,52.5,-6.8,42.41,2.58,0.83,36.814095,-119.74785,248.88,336.71549362204377,3.33,19.35484,272.63,0 / 0,7388,2015-10-30 10:48:39:711
-0.2933,-0.3974,9.7983,-0.1445,-0.4409,9.7957,0.0134,-0.0171,0.022,-48.6,52.6,-6.8,42.99,2.59,0.86,36.814095,-119.74785,248.88,336.71549362204377,3.33,19.35484,272.63,0 / 0,7490,2015-10-30 10:48:39:813
-0.2298,-0.3304,9.7504,-0.1547,-0.4325,9.7959,-0.0049,0.0086,0.0086,-49.0,52.8,-7.0,42.99,2.52,0.89,36.814095,-119.74785,248.88,336.71549362204377,3.33,19.35484,272.63,0 / 0,7592,2015-10-30 10:48:39:915
0.3089,-0.2322,10.1071,-0.1465,-0.4262,9.7963,0.0098,0.0024,-0.0623,-49.2,53.0,-7.2,42.99,2.49,0.86,36.814095,-119.74785,248.88,336.71549362204377,3.33,19.35484,272.63,0 / 0,7694,2015-10-30 10:48:40:017
0.595,-0.091,9.6678,-0.1316,-0.3821,9.7983,0.0635,0.0195,-0.1723,-49.3,52.9,-7.4,42.97,2.36,0.81,36.814095,-119.74785,248.88,336.71549362204377,3.33,19.35484,272.63,0 / 0,7796,2015-10-30 10:48:40:119
1.0894,-0.1437,9.56,-0.0221,-0.2802,9.8026,0.0281,0.0037,-0.6365,-49.7,50.9,-8.9,44.61,1.7,0.26,36.814095,-119.74785,248.88,336.71549362204377,3.33,19.35484,272.63,0 / 0,7898,2015-10-30 10:48:40:221
0.7518,-0.51,9.7743,0.0177,-0.311,9.8017,-0.0037,0.1271,-1.1496,-50.7,40.2,-15.9,52.22,1.71,-0.16,36.814095,-119.74785,248.88,336.71549362204377,3.33,19.35484,272.63,0 / 0,8000,2015-10-30 10:48:40:323
0.7446,-0.65,9.912,0.0028,-0.2957,9.8022,0.0147,0.0782,-1.3671,-51.0,34.8,-20.3,56.03,1.82,-0.05,36.814095,-119.74785,248.88,336.71549362204377,3.33,19.35484,272.63,0 / 0,8102,2015-10-30 10:48:40:425
0.9481,-1.0223,9.3434,0.0218,-0.1351,9.8057,0.2358,-0.0415,-1.7764,-51.4,19.1,-29.9,70.15,1.1,0.09,36.814095,-119.74785,248.88,336.71549362204377,3.33,19.35484,272.63,0 / 0,8204,2015-10-30 10:48:40:527
0.9026,-1.9142,9.93,0.0945,-0.084,9.8058,0.0367,-0.0806,-2.3066,-50.1,7.2,-34.4,82.38,0.56,-0.33,36.814095,-119.74785,248.88,336.71549362204377,3.33,19.35484,272.63,0 / 0,8305,2015-10-30 10:48:40:628
0.6788,-2.1895,9.7983,0.0277,-0.1091,9.806,-0.0024,0.2199,-2.3555,-47.0,-2.3,-32.0,92.82,0.54,-0.43,36.814095,-119.74785,248.88,336.71549362204377,3.33,19.35484,272.63,0 / 0,8408,2015-10-30 10:48:40:731
0.7111,-1.5095,9.7743,-0.0542,-0.0695,9.8063,0.0806,0.1747,-2.2712,-39.3,-14.2,-32.8,109.96,0.41,0.32,36.814095,-119.74785,248.88,336.71549362204377,3.33,19.35484,272.63,0 / 0,8510,2015-10-30 10:48:40:833
-0.0658,-1.0223,9.5912,-0.1033,5.0E-4,9.8061,0.2395,0.0318,-2.0782,-35.4,-18.9,-32.6,118.46,0.22,0.48,36.814095,-119.74785,248.88,336.71549362204377,3.33,19.35484,272.63,0 / 0,8612,2015-10-30 10:48:40:935
-0.2071,-1.2474,9.396,-0.0938,0.1607,9.8049,0.2529,-0.0648,-2.0244,-32.1,-22.0,-29.3,123.87,-0.73,0.47,36.814095,-119.74785,248.88,336.71549362204377,3.33,19.35484,272.63,0 / 0,8713,2015-10-30 10:48:41:036
-0.3508,-1.4784,9.3937,-0.0239,0.296,9.8022,0.3714,-0.2761,-1.9902,-27.8,-27.1,-25.9,133.11,-1.27,0.49,36.814095,-119.74785,248.88,336.71549362204377,3.33,19.35484,272.63,0 / 0,8816,2015-10-30 10:48:41:139
0.0263,-1.9812,9.572,0.1408,0.462,9.7948,0.2114,-0.4105,-2.0281,-22.2,-31.9,-23.7,144.91,-2.7,-0.82,36.814095,-119.74785,248.88,336.71549362204377,3.33,19.35484,272.63,0 / 0,8918,2015-10-30 10:48:41:241
-0.6536,-2.0842,10.0461,0.3616,0.4548,9.7894,0.0195,-0.2016,-2.1845,-17.6,-35.1,-22.9,153.06,-2.67,-1.94,36.814095,-119.74785,248.88,336.71549362204377,3.33,19.35484,272.63,0 / 0,9020,2015-10-30 10:48:41:343
-0.9804,-1.7298,9.4822,0.3599,0.4233,9.7909,-0.0916,-0.1197,-2.2101,-12.0,-37.6,-20.0,163.11,-2.47,-2.11,36.814095,-119.74785,248.88,336.71549362204377,3.33,19.35484,272.63,0 / 0,9122,2015-10-30 10:48:41:445
-1.3132,-1.6412,9.9491,0.3459,0.256,9.7972,-0.1124,-0.0819,-2.1502,-2.5,-39.5,-19.5,178.04,-1.7,-2.06,36.814095,-119.74785,248.88,336.71549362204377,3.33,19.35484,272.63,0 / 0,9224,2015-10-30 10:48:41:547
-1.8878,-1.2079,9.8593,0.3246,0.1615,9.7999,-0.1307,-0.0965,-1.7996,4.5,-39.4,-20.4,188.37,-1.23,-1.93,36.814095,-119.74785,248.88,336.71549362204377,3.33,19.35484,272.63,0 / 0,9326,2015-10-30 10:48:41:649
-1.7705,-0.9673,10.1514,0.3773,0.0808,9.7991,-0.1075,-0.1307,-1.4966,8.1,-38.5,-20.6,193.07,-0.63,-2.11,36.814095,-119.74785,248.88,336.71549362204377,3.33,19.35484,272.63,0 / 0,9427,2015-10-30 10:48:41:750
-1.98,0.176,8.3043,0.2707,0.1598,9.8016,0.1393,0.0562,-0.744,11.6,-38.3,-20.1,198.43,-0.72,-1.67,36.814095,-119.74785,248.88,336.71549362204377,3.33,19.35484,272.63,0 / 0,9530,2015-10-30 10:48:41:853
-0.9493,0.844,9.2009,0.2865,0.0771,9.8022,-0.1539,-0.0635,-0.3299,12.3,-37.8,-20.7,198.45,-0.65,-1.64,36.814095,-119.74785,248.88,336.71549362204377,3.33,19.35484,272.63,0 / 0,9632,2015-10-30 10:48:41:955
-0.5028,-0.0431,11.5329,0.3636,-0.1757,9.7983,0.0342,0.022,-0.022,14.8,-36.9,-21.2,202.88,0.3,-1.82,36.814095,-119.74785,248.88,336.71549362204377,3.33,19.35484,272.63,0 / 0,9734,2015-10-30 10:48:42:057
0.1149,0.231,9.2404,0.3835,-0.1342,9.7982,0.0183,-0.0586,0.0538,15.9,-36.4,-21.9,204.88,0.86,-2.23,36.814095,-119.74785,248.88,336.71549362204377,3.33,19.35484,272.63,0 / 0,9836,2015-10-30 10:48:42:159
0.2526,0.4142,9.3721,0.4188,-0.1645,9.7963,-0.1808,-0.0073,-0.0623,16.2,-36.2,-22.2,204.97,0.96,-2.45,36.814095,-119.74785,248.88,336.71549362204377,3.33,19.35484,272.63,0 / 0,9938,2015-10-30 10:48:42:261
0.2466,0.0251,10.3657,0.3823,-0.4121,9.7905,-0.2309,0.1356,-0.171,16.3,-35.9,-22.3,204.72,1.92,-2.37,36.814095,-119.74785,248.88,336.71549362204377,3.33,19.35484,272.63,0 / 0,10040,2015-10-30 10:48:42:363
0.1628,0.6967,9.4463,0.2879,-0.5602,9.7864,-0.0696,0.0098,-0.2028,16.7,-35.2,-22.8,206.09,3.22,-1.83,36.814095,-119.74785,248.88,336.71549362204377,3.33,19.35484,272.63,0 / 0,10142,2015-10-30 10:48:42:465
-0.2095,0.7697,10.4004,0.2655,-0.6658,9.7804,-0.0855,-0.0672,-0.2517,17.0,-34.4,-23.1,206.5,3.53,-1.53,36.814095,-119.74785,248.88,336.71549362204377,3.33,19.35484,272.63,0 / 0,10243,2015-10-30 10:48:42:566
-0.3256,0.9924,9.5457,0.26,-0.5336,9.7887,0.0819,0.0305,-0.1185,17.6,-33.3,-23.2,208.53,3.7,-1.74,36.814095,-119.74785,248.88,336.71549362204377,3.33,19.35484,272.63,0 / 0,10346,2015-10-30 10:48:42:669
-0.103,1.1408,9.0549,0.1711,-0.3204,9.7999,0.1698,0.1124,-0.0232,18.0,-31.8,-22.5,209.35,1.87,-1.0,36.814095,-119.74785,248.88,336.71549362204377,3.33,19.35484,272.63,0 / 0,10448,2015-10-30 10:48:42:771
-0.8894,0.5076,11.631,0.117,-0.2439,9.8029,-0.0305,0.0147,0.0672,18.3,-30.2,-20.8,210.93,1.24,-0.65,36.814095,-119.74785,248.88,336.71549362204377,3.33,19.35484,272.63,0 / 0,10550,2015-10-30 10:48:42:873
-0.6991,0.0239,10.3657,0.1055,-0.1921,9.8042,0.0415,-0.0464,0.1808,18.4,-29.0,-19.4,211.75,1.26,-0.61,36.814095,-119.74785,248.88,336.71549362204377,3.33,19.35484,272.63,0 / 0,10651,2015-10-30 10:48:42:974
-0.0611,0.0491,9.5277,0.0869,-0.2192,9.8038,0.4068,-0.1906,0.3299,18.5,-26.7,-17.9,214.97,1.28,-0.51,36.814095,-119.74785,248.88,336.71549362204377,3.33,19.35484,272.63,0 / 0,10754,2015-10-30 10:48:43:077
-0.1999,0.1269,8.2073,0.1802,0.0753,9.8047,0.2346,0.022,0.1283,18.6,-25.2,-17.2,217.82,-0.44,-1.05,36.814095,-119.74785,248.88,336.71549362204377,3.33,19.35484,272.63,0 / 0,10856,2015-10-30 10:48:43:179
-0.4525,0.4034,8.2373,0.2362,0.282,9.7997,0.2175,-0.011,0.099,19.2,-22.9,-17.0,220.76,-1.65,-1.38,36.814095,-119.74785,248.88,336.71549362204377,3.33,19.35484,272.63,0 / 0,10958,2015-10-30 10:48:43:281
-0.2705,0.7518,8.9364,0.3079,0.4423,9.7918,-0.0244,-0.0159,-0.1759,19.9,-21.0,-17.3,225.4,-2.59,-1.8,36.814095,-119.74785,248.88,336.71549362204377,3.33,19.35484,272.63,0 / 0,11060,2015-10-30 10:48:43:383
-0.4669,-0.7889,12.1458,0.2799,0.3145,9.7976,-0.2358,0.0293,-0.2162,20.9,-19.4,-18.2,229.64,-2.23,-1.78,36.814095,-119.74785,248.88,336.71549362204377,3.33,19.35484,272.63,0 / 0,11162,2015-10-30 10:48:43:485
-0.3208,-1.7202,13.1095,0.134,-0.1972,9.8038,-0.6402,-0.0965,-0.5143,22.4,-16.6,-19.1,233.26,-1.12,-0.86,36.814095,-119.74785,248.88,336.71549362204377,3.33,19.35484,272.63,0 / 0,11264,2015-10-30 10:48:43:587
0.6835,0.2011,8.1163,0.1179,0.0329,9.8059,-0.0379,0.0171,-0.0757,23.5,-14.0,-20.7,239.91,0.12,-0.65,36.814095,-119.74785,248.88,336.71549362204377,3.33,19.35484,272.63,0 / 0,11366,2015-10-30 10:48:43:689
-0.5578,0.0706,7.9799,-0.0098,-0.043,9.8066,-0.0501,0.1735,-0.1796,23.6,-12.4,-21.6,243.38,0.2,-0.25,36.814095,-119.74785,248.88,336.71549362204377,3.33,19.35484,272.63,0 / 0,11468,2015-10-30 10:48:43:791
-0.2837,0.7338,8.357,-0.2185,-0.0946,9.8038,-0.0733,0.1539,0.0672,22.6,-11.3,-23.7,243.59,0.46,1.08,36.814095,-119.74785,248.88,336.71549362204377,3.33,19.35484,272.63,0 / 0,11569,2015-10-30 10:48:43:892
-0.6333,0.1281,9.8713,-0.2062,-0.1885,9.8027,-0.1539,-0.0574,0.2211,21.3,-11.1,-24.6,240.92,0.84,1.26,36.814095,-119.74785,248.88,336.71549362204377,3.33,19.35484,272.63,0 / 0,11672,2015-10-30 10:48:43:995
-0.1161,-0.6536,11.2863,0.1393,-0.1115,9.805,-0.3763,-0.4826,0.0281,16.8,-11.9,-26.8,233.15,1.09,0.64,36.814095,-119.74785,248.88,336.71549362204377,3.33,19.35484,272.63,0 / 0,11774,2015-10-30 10:48:44:097
-0.5171,-0.5543,9.6007,0.2653,-0.3517,9.7968,-0.0086,0.1393,0.2517,7.6,-14.1,-29.2,210.31,2.06,-1.55,36.814095,-119.74785,248.88,336.71549362204377,3.33,19.35484,272.63,0 / 0,11876,2015-10-30 10:48:44:199
-0.346,-0.6309,8.1618,0.4426,-0.1773,9.7951,0.1307,0.2896,0.0367,1.7,-15.5,-29.8,192.17,1.04,-2.59,36.814095,-119.74785,248.88,336.71549362204377,3.33,19.35484,272.63,0 / 0,11978,2015-10-30 10:48:44:301
-0.1077,0.3232,7.2125,0.2813,0.1488,9.8015,0.3873,0.1649,0.1271,-2.1,-17.0,-30.0,176.7,0.16,-1.94,36.814095,-119.74785,248.88,336.71549362204377,3.33,19.35484,272.63,0 / 0,12080,2015-10-30 10:48:44:403
-0.48,-0.1329,8.6969,0.2735,0.1624,9.8015,-0.0379,-0.0757,-0.0501,-6.7,-17.7,-28.8,160.42,-1.26,-1.63,36.814095,-119.74785,248.88,336.71549362204377,3.33,19.35484,272.63,0 / 0,12182,2015-10-30 10:48:44:505
-0.2083,-1.5119,10.7033,0.2548,-0.0257,9.8033,-0.0843,-0.1735,0.0012,-9.8,-17.9,-29.5,152.44,-0.02,-1.2,36.814095,-119.74785,248.88,336.71549362204377,3.33,19.35484,272.63,0 / 0,12283,2015-10-30 10:48:44:606
-0.1341,-2.2386,12.4822,0.1841,-0.5652,9.7886,-0.4007,0.2615,-0.3152,-12.6,-17.9,-28.8,147.64,3.3,-1.08,36.814095,-119.74785,248.88,336.71549362204377,3.33,19.35484,272.63,0 / 0,12386,2015-10-30 10:48:44:709
0.4561,-1.0774,10.6494,0.2009,-0.7964,9.7722,-0.0696,-0.1759,-0.3152,-15.0,-17.5,-29.5,142.87,4.11,-1.13,36.814095,-119.74785,248.88,336.71549362204377,3.33,19.35484,272.63,0 / 0,12488,2015-10-30 10:48:44:811
-0.0431,0.48,7.3179,0.02,-0.9094,9.7644,0.215,0.1271,0.0513,-17.1,-16.7,-30.3,139.33,5.32,-0.12,36.814095,-119.74785,248.88,336.71549362204377,3.33,19.35484,272.63,0 / 0,12590,2015-10-30 10:48:44:913
-0.2442,0.4142,8.2971,-0.0628,-0.7705,9.7761,0.1686,-0.0403,0.1454,-18.0,-16.5,-30.8,135.28,4.51,0.37,36.814095,-119.74785,248.88,336.71549362204377,3.33,19.35484,272.63,0 / 0,12692,2015-10-30 10:48:45:015
-1.0415,-0.2155,11.6717,-0.0658,-0.6892,9.7822,0.2896,-0.0354,0.4325,-19.4,-16.1,-31.6,133.56,4.23,0.45,36.814095,-119.74785,248.88,336.71549362204377,3.33,19.35484,272.63,0 / 0,12793,2015-10-30 10:48:45:116
0.7817,-2.0865,14.6525,0.3482,-0.6122,9.7813,-0.0672,-0.8076,0.2382,-20.0,-15.8,-32.0,131.79,3.07,-0.35,36.814095,-119.74785,248.88,336.71549362204377,3.33,19.35484,272.63,0 / 0,12896,2015-10-30 10:48:45:219
-0.5411,-1.0738,8.4767,0.6045,-0.4646,9.777,0.4459,-0.4423,0.0342,-20.6,-15.3,-32.7,131.64,3.46,-3.14,36.814095,-119.74785,248.88,336.71549362204377,3.33,19.35484,272.63,0 / 0,12998,2015-10-30 10:48:45:321
-0.2083,-0.8356,8.8909,0.919,-0.2312,9.7608,0.1246,0.0623,0.0953,-20.1,-15.5,-33.2,133.36,1.5,-5.34,36.814095,-119.74785,248.88,336.71549362204377,3.33,19.35484,272.63,0 / 0,13100,2015-10-30 10:48:45:423
0.2358,0.0838,6.9923,0.7998,0.1042,9.7734,0.4643,0.0916,0.1784,-17.3,-17.5,-34.6,140.81,0.08,-4.97,36.814095,-119.74785,248.88,336.71549362204377,3.33,19.35484,272.63,0 / 0,13202,2015-10-30 10:48:45:525
-0.5339,-0.419,8.2923,0.5961,0.2024,9.7864,-0.1014,0.2016,-0.1796,-13.8,-20.5,-36.3,149.05,-1.22,-3.9,36.814095,-119.74785,248.88,336.71549362204377,3.33,19.35484,272.63,0 / 0,13304,2015-10-30 10:48:45:627
0.4226,-0.7111,9.6881,0.4139,0.0573,9.7977,-0.0232,0.0,-0.1075,-10.6,-23.0,-38.9,157.92,-0.35,-2.58,36.814095,-119.74785,248.88,336.71549362204377,3.33,19.35484,272.63,0 / 0,13405,2015-10-30 10:48:45:728
0.0742,-1.9321,13.368,0.5399,-0.454,9.7812,-0.8564,-0.16,-0.5913,-8.9,-23.7,-39.6,164.92,1.27,-3.26,36.814095,-119.74785,248.88,336.71549362204377,3.33,19.35484,272.63,0 / 0,13508,2015-10-30 10:48:45:831
0.6967,-0.4274,8.6239,0.4521,-0.4455,9.7861,0.011,0.0073,-0.055,-6.6,-25.5,-40.7,169.24,2.6,-2.65,36.814095,-119.74785,248.88,336.71549362204377,3.33,19.35484,272.63,0 / 0,13610,2015-10-30 10:48:45:933
-0.395,-0.0371,8.7293,0.3806,-0.5085,9.7861,-0.1234,0.0147,-0.1051,-4.0,-27.5,-41.6,175.36,2.97,-2.23,36.814095,-119.74785,248.88,336.71549362204377,3.33,19.35484,272.63,0 / 0,13712,2015-10-30 10:48:46:035
-0.1269,0.3436,8.7843,0.4018,-0.4971,9.7858,0.0037,0.0721,0.022,-2.7,-29.0,-41.9,177.65,2.91,-2.35,36.814095,-119.74785,248.88,336.71549362204377,3.33,19.35484,272.63,0 / 0,13814,2015-10-30 10:48:46:137
-0.929,-0.0491,10.7344,0.3375,-0.2794,9.7969,0.281,-0.0086,0.0195,-1.2,-31.6,-41.8,180.94,2.43,-2.12,36.814095,-119.74785,248.88,336.71549362204377,3.33,19.35484,272.63,0 / 0,13915,2015-10-30 10:48:46:238
-0.0742,-1.9549,12.5468,0.3881,-0.3966,9.7909,-0.8381,-0.358,-0.099,-0.5,-33.6,-41.3,181.87,0.7,-1.58,36.814095,-119.74785,248.88,336.71549362204377,3.33,19.35484,272.63,0 / 0,14018,2015-10-30 10:48:46:341
-0.103,-0.328,8.9986,0.3819,-0.3223,9.7939,0.1723,-0.314,0.3958,0.0,-35.9,-40.2,182.39,1.88,-2.23,36.814095,-119.74785,248.88,336.71549362204377,3.33,19.35484,272.63,0 / 0,14120,2015-10-30 10:48:46:443
-0.4082,-0.6297,9.5636,0.3468,-0.3292,9.795,-0.1356,0.2456,0.1271,-0.3,-37.1,-39.2,182.85,1.62,-2.79,36.814095,-119.74785,248.88,336.71549362204377,3.33,19.35484,272.63,0 / 0,14222,2015-10-30 10:48:46:545
-0.1137,0.0,6.9444,0.1492,-0.0402,9.8054,0.3616,0.259,0.1478,-0.8,-37.6,-37.7,179.37,0.24,-0.87,36.814095,-119.74785,248.88,336.71549362204377,3.33,19.35484,272.63,0 / 0,14324,2015-10-30 10:48:46:647
-0.2993,-0.4477,9.3051,0.0243,-0.0033,9.8066,-0.1319,0.0403,-0.3665,-1.2,-37.6,-36.5,178.75,-0.14,-0.27,36.814095,-119.74785,248.88,336.71549362204377,3.33,19.35484,272.63,0 / 0,14425,2015-10-30 10:48:46:748
0.7518,-0.2514,9.4954,0.1116,-0.0627,9.8058,0.0403,-0.16,-0.4007,-1.0,-36.8,-35.6,179.09,0.37,-0.65,36.814095,-119.74785,248.88,336.71549362204377,3.33,19.35484,272.63,0 / 0,14528,2015-10-30 10:48:46:851
-0.2598,-1.6412,11.6322,0.4258,-0.6294,9.7772,-0.6145,-0.2419,-0.4691,-0.6,-35.0,-35.7,180.3,2.94,-1.89,36.814095,-119.74785,248.88,336.71549362204377,3.33,19.35484,272.63,0 / 0,14630,2015-10-30 10:48:46:953
0.0694,-0.7039,9.3458,0.5207,-0.4805,9.781,-0.1491,-0.0037,0.077,-0.3,-33.7,-36.2,183.0,2.67,-2.97,36.814095,-119.74785,248.88,336.71549362204377,3.33,19.35484,272.63,0 / 0,14732,2015-10-30 10:48:47:055
-0.0922,0.5638,8.2983,0.3558,-0.4219,9.7911,0.0916,0.0843,0.1417,-0.2,-32.2,-36.8,182.29,2.47,-2.08,36.814095,-119.74785,248.88,336.71549362204377,3.33,19.35484,272.63,0 / 0,14834,2015-10-30 10:48:47:157
0.9732,1.0223,9.6426,0.2138,-0.2878,9.8001,0.1552,0.237,0.022,0.0,-31.9,-37.0,181.4,1.68,-1.25,36.814095,-119.74785,248.88,336.71549362204377,3.33,19.35484,272.63,0 / 0,14936,2015-10-30 10:48:47:259
-0.6536,0.0862,10.738,0.0802,0.0324,9.8063,0.369,-0.0195,0.0244,0.3,-32.1,-37.0,180.64,0.4,-0.56,36.814095,-119.74785,248.88,336.71549362204377,3.33,19.35484,272.63,0 / 0,15038,2015-10-30 10:48:47:361
-1.2151,-1.7214,14.0097,0.4022,0.1098,9.7978,-0.1454,-0.0501,0.0562,1.3,-32.7,-36.5,183.9,-1.39,-1.89,36.814095,-119.74785,248.88,336.71549362204377,3.33,19.35484,272.63,0 / 0,15140,2015-10-30 10:48:47:463
-0.6033,-0.3376,8.6682,0.3789,0.1155,9.7986,-0.0049,0.0342,0.281,3.0,-33.0,-36.0,187.67,-0.67,-2.21,36.814095,-119.74785,248.88,336.71549362204377,3.33,19.35484,272.63,0 / 0,15242,2015-10-30 10:48:47:565
-0.747,-0.4836,9.3685,0.5128,-0.0143,9.7932,-0.1161,0.0538,0.1051,4.1,-33.0,-35.9,190.13,-0.37,-2.96,36.814095,-119.74785,248.88,336.71549362204377,3.33,19.35484,272.63,0 / 0,15344,2015-10-30 10:48:47:667
-0.243,0.4513,8.1283,0.4227,0.017,9.7975,0.0538,0.1283,0.0648,6.1,-32.9,-36.1,193.02,0.08,-2.63,36.814095,-119.74785,248.88,336.71549362204377,3.33,19.35484,272.63,0 / 0,15446,2015-10-30 10:48:47:769
-0.5555,-0.3723,9.7899,0.3656,0.069,9.7996,0.0318,-0.044,-0.0208,8.7,-33.4,-35.7,197.44,-0.36,-2.08,36.814095,-119.74785,248.88,336.71549362204377,3.33,19.35484,272.63,0 / 0,15548,2015-10-30 10:48:47:871
0.9337,-0.2873,9.6678,0.3165,-0.0125,9.8015,-0.0672,0.1185,0.0037,12.8,-34.5,-35.3,202.83,-0.49,-1.96,36.814095,-119.74785,248.88,336.71549362204377,3.33,19.35484,272.63,0 / 0,15650,2015-10-30 10:48:47:973
0.2346,-1.1325,10.3441,0.3471,-0.4459,9.7904,-0.0892,-0.204,-0.0403,16.4,-35.5,-35.0,205.25,2.61,-2.03,36.814095,-119.74785,248.88,336.71549362204377,3.33,19.35484,272.63,0 / 0,15752,2015-10-30 10:48:48:075
0.1915,-0.589,9.3901,0.4515,-0.4447,9.7862,-0.0415,-0.099,0.0403,18.7,-36.1,-35.1,208.88,2.34,-2.67,36.814095,-119.74785,248.88,336.71549362204377,3.33,19.35484,272.63,0 / 0,15854,2015-10-30 10:48:48:177
-0.158,0.3292,8.5677,0.4184,-0.4831,9.7858,-0.0476,0.1649,0.0232,20.8,-37.3,-35.4,210.19,2.82,-2.45,36.814095,-119.74785,248.88,336.71549362204377,3.33,19.35484,272.63,0 / 0,15956,2015-10-30 10:48:48:279
0.322,0.6823,9.3338,0.3958,-0.4143,9.7899,0.0831,0.0354,0.0037,21.6,-38.8,-35.3,209.94,2.68,-2.25,36.814095,-119.74785,248.88,336.71549362204377,3.33,19.35484,272.63,0 / 0,16058,2015-10-30 10:48:48:381
-0.6776,0.3627,11.2875,0.3329,-0.1408,9.8,0.2737,-0.0672,0.2089,22.1,-42.4,-33.9,208.42,1.29,-1.93,36.814095,-119.74785,248.88,336.71549362204377,3.33,19.35484,272.63,0 / 0,16160,2015-10-30 10:48:48:483
-0.0611,-1.3192,12.3242,0.5804,-0.0803,9.7891,-0.0147,-0.3934,0.0574,21.0,-45.8,-32.2,206.03,-0.01,-2.66,36.814095,-119.74785,248.88,336.71549362204377,3.33,19.35484,272.63,0 / 0,16262,2015-10-30 10:48:48:585
-0.6057,-0.4764,9.4499,0.6819,-0.0309,9.7829,0.1894,-0.2248,0.2651,18.2,-48.7,-30.0,202.01,0.44,-3.7,36.814095,-119.74785,248.88,336.71549362204377,3.33,19.35484,272.63,0 / 0,16364,2015-10-30 10:48:48:687
-0.322,-0.4262,8.9878,0.7336,0.0169,9.7792,0.066,0.0513,0.1662,14.6,-50.3,-29.4,198.93,-0.1,-4.29,36.814095,-119.74785,248.88,336.71549362204377,3.33,19.35484,272.63,0 / 0,16466,2015-10-30 10:48:48:789
-0.0431,0.2083,7.4543,0.6284,0.2289,9.7838,0.2871,0.1148,0.1955,12.0,-50.6,-28.1,195.4,-0.59,-4.1,36.814095,-119.74785,248.88,336.71549362204377,3.33,19.35484,272.63,0 / 0,16568,2015-10-30 10:48:48:891
-0.4609,-0.1197,8.9842,0.5286,0.213,9.7901,-0.0855,0.1515,-0.11,9.7,-51.0,-27.1,192.93,-1.38,-3.35,36.814095,-119.74785,248.88,336.71549362204377,3.33,19.35484,272.63,0 / 0,16670,2015-10-30 10:48:48:993
0.3208,-1.0235,10.0832,0.5002,0.1673,9.7925,-0.0464,-0.0586,-0.066,8.0,-50.8,-25.8,190.46,-0.98,-2.96,36.814095,-119.74785,248.88,336.71549362204377,3.33,19.35484,272.63,0 / 0,16772,2015-10-30 10:48:49:095
-0.6393,-1.7454,12.2475,0.5177,-0.4483,9.7827,-0.3531,0.0709,-0.215,7.3,-49.8,-25.2,189.39,1.46,-3.16,36.814095,-119.74785,248.88,336.71549362204377,3.33,19.35484,272.63,0 / 0,16874,2015-10-30 10:48:49:197
1.2941,-0.322,8.8645,0.7434,-0.4234,9.7693,0.1894,-0.3738,0.0159,7.2,-48.9,-25.8,189.86,2.44,-3.78,36.814095,-119.74785,248.88,336.71549362204377,3.33,19.35484,272.63,0 / 0,16976,2015-10-30 10:48:49:299
0.2717,0.097,8.1271,0.7633,-0.4261,9.7676,0.055,0.0867,-0.1344,6.8,-47.6,-27.0,190.48,2.49,-4.47,36.814095,-119.74785,248.88,336.71549362204377,3.33,19.35484,272.63,0 / 0,17078,2015-10-30 10:48:49:401
0.5722,0.413,8.8573,0.6587,-0.4347,9.7748,-0.0745,0.0977,-0.2126,6.6,-47.2,-27.6,190.49,2.46,-3.95,36.814095,-119.74785,248.88,336.71549362204377,3.33,19.35484,272.63,0 / 0,17180,2015-10-30 10:48:49:503
-0.3663,-0.0395,10.2208,0.4143,-0.3966,9.7899,0.0342,0.2847,-0.0257,6.4,-47.1,-28.1,188.95,2.68,-3.3,36.814095,-119.74785,248.88,336.71549362204377,3.33,19.35484,272.63,0 / 0,17282,2015-10-30 10:48:49:605
1.2246,0.0192,9.8749,0.4744,-0.0967,9.7947,0.4691,-0.0794,0.4936,6.4,-47.5,-28.5,188.68,1.31,-2.6,36.814095,-119.74785,248.88,336.71549362204377,3.33,19.35484,272.63,0 / 0,17384,2015-10-30 10:48:49:707
-0.9194,-1.5514,12.402,0.5959,-0.1647,9.7871,0.0525,-0.0073,0.1124,5.9,-48.0,-28.5,189.0,0.55,-3.39,36.814095,-119.74785,248.88,336.71549362204377,3.33,19.35484,272.63,0 / 0,17485,2015-10-30 10:48:49:808
0.1736,-0.8655,10.3693,0.9687,0.0359,9.7586,0.2932,-0.5608,0.1894,4.7,-49.2,-28.3,188.51,0.16,-4.84,36.814095,-119.74785,248.88,336.71549362204377,3.33,19.35484,272.63,0 / 0,17588,2015-10-30 10:48:49:911
-0.1233,-0.2298,8.09,0.9667,0.1934,9.757,0.0794,0.0684,-0.0855,3.6,-50.1,-27.6,187.82,-0.98,-5.78,36.814095,-119.74785,248.88,336.71549362204377,3.33,19.35484,272.63,0 / 0,17690,2015-10-30 10:48:50:013
-0.0455,-0.1676,8.8298,0.9108,0.2236,9.7617,0.0428,0.1405,-0.2077,3.3,-50.8,-27.2,186.32,-1.18,-5.52,36.814095,-119.74785,248.88,336.71549362204377,3.33,19.35484,272.63,0 / 0,17791,2015-10-30 10:48:50:114
-0.1903,-0.3268,9.4595,0.68,0.2631,9.7795,0.0709,0.1417,-0.1442,4.0,-51.8,-26.1,186.6,-1.44,-4.3,36.814095,-119.74785,248.88,336.71549362204377,3.33,19.35484,272.63,0 / 0,17894,2015-10-30 10:48:50:217
0.1257,-0.3448,9.7695,0.5385,0.3088,9.787,0.0782,0.1112,0.0037,5.7,-52.7,-25.2,188.03,-1.8,-3.15,36.814095,-119.74785,248.88,336.71549362204377,3.33,19.35484,272.63,0 / 0,17995,2015-10-30 10:48:50:318
0.6201,-1.1899,12.3936,0.7088,0.1017,9.7805,-0.529,-0.1442,-0.1234,6.7,-53.2,-24.8,189.3,-1.4,-3.65,36.814095,-119.74785,248.88,336.71549362204377,3.33,19.35484,272.63,0 / 0,18098,2015-10-30 10:48:50:421
0.9697,-0.6333,9.7205,0.8223,-0.0051,9.7721,-0.0024,-0.2468,0.2541,7.4,-53.5,-24.1,189.34,0.08,-4.17,36.814095,-119.74785,248.88,336.71549362204377,3.33,19.35484,272.63,0 / 0,18199,2015-10-30 10:48:50:522
0.6548,-0.4214,8.5724,0.8477,-2.0E-4,9.7699,0.0941,0.022,0.2321,7.4,-53.6,-24.0,189.45,0.17,-4.85,36.814095,-119.74785,248.88,336.71549362204377,3.33,19.35484,272.63,0 / 0,18302,2015-10-30 10:48:50:625
0.6572,-0.8368,9.2285,0.9533,-0.0107,9.7602,-0.1429,0.0916,0.1881,6.7,-53.6,-23.4,189.67,0.06,-5.58,36.814095,-119.74785,248.88,336.71549362204377,3.33,19.35484,272.63,0 / 0,18404,2015-10-30 10:48:50:727
0.2909,-0.9948,10.0784,0.9563,-0.1762,9.7583,-0.1955,0.0623,0.2211,6.1,-53.8,-23.0,188.59,1.03,-5.6,36.814095,-119.74785,248.88,336.71549362204377,3.33,19.35484,272.63,0 / 0,18506,2015-10-30 10:48:50:829
0.7661,-0.8847,11.066,1.0193,-0.4775,9.7418,-0.2492,-0.2272,0.1393,5.6,-53.9,-23.0,188.47,1.83,-5.42,36.814095,-119.74785,248.88,336.71549362204377,3.33,19.35484,272.63,0 / 0,18608,2015-10-30 10:48:50:931
0.4405,-0.5698,9.7288,0.9377,-0.5706,9.745,-0.0892,0.0525,-0.0159,5.1,-54.0,-23.4,187.45,3.19,-5.57,36.814095,-119.74785,248.88,336.71549362204377,3.33,19.35484,272.63,0 / 0,18709,2015-10-30 10:48:51:032
0.5555,-0.7602,9.6415,0.9384,-0.5929,9.7436,0.0049,0.0415,-0.1161,4.8,-54.0,-24.4,187.52,3.47,-5.55,36.814095,-119.74785,248.88,336.71549362204377,3.33,19.35484,272.63,0 / 0,18812,2015-10-30 10:48:51:135
1.2677,-0.559,9.5481,0.9052,-0.5974,9.7465,-0.0244,0.1258,-0.2737,5.1,-54.1,-24.5,187.41,3.49,-5.31,36.814095,-119.74785,248.88,336.71549362204377,3.33,19.35484,272.63,0 / 0,18914,2015-10-30 10:48:51:237
1.7346,-0.729,10.5225,0.4198,-0.7724,9.7672,-0.3592,0.8112,-0.5021,5.8,-53.9,-24.6,187.86,4.03,-3.87,36.814095,-119.74785,248.88,336.71549362204377,3.33,19.35484,272.63,0 / 0,19016,2015-10-30 10:48:51:339
2.326,-1.1073,9.7719,0.2196,-0.6713,9.7812,0.1723,0.2724,-1.2144,9.3,-53.0,-24.0,189.92,3.93,-1.29,36.814095,-119.74785,248.88,336.71549362204377,3.33,19.35484,272.63,0 / 0,19117,2015-10-30 10:48:51:440
1.8603,-1.798,9.8821,0.1583,-0.4642,9.7944,0.336,0.0086,-1.8143,16.5,-50.3,-23.1,198.63,3.4,-0.71,36.814095,-119.74785,248.88,336.71549362204377,3.33,19.35484,272.63,0 / 0,19220,2015-10-30 10:48:51:543
1.3767,-1.9166,9.7384,0.3068,-0.1672,9.8004,0.3152,-0.0501,-1.9865,26.0,-44.6,-21.4,210.44,0.98,-1.79,36.814095,-119.74785,248.88,336.71549362204377,3.33,19.35484,272.63,0 / 0,19322,2015-10-30 10:48:51:645
0.8871,-1.8699,9.7157,0.4778,0.1483,9.7939,0.2248,-0.0831,-2.1417,31.7,-40.2,-21.7,219.45,-0.01,-2.44,36.814095,-119.74785,248.88,336.71549362204377,3.33,19.35484,272.63,0 / 0,19424,2015-10-30 10:48:51:747
0.6345,-1.3515,9.5876,0.5143,0.3588,9.7866,0.2028,-0.0892,-2.0733,38.5,-30.9,-22.5,232.84,-1.72,-2.99,36.814095,-119.74785,248.88,336.71549362204377,3.33,19.35484,272.63,0 / 0,19526,2015-10-30 10:48:51:849
-0.0455,-1.3539,9.9707,0.5937,0.5614,9.7725,0.215,-0.2969,-2.1087,42.1,-24.2,-22.7,242.03,-2.84,-3.19,36.814095,-119.74785,248.88,336.71549362204377,3.33,19.35484,272.63,0 / 0,19628,2015-10-30 10:48:51:951
-0.3627,-1.3036,10.3621,0.6896,0.7262,9.7554,0.1552,-0.4068,-1.945,43.5,-13.8,-26.8,255.09,-4.25,-4.04,36.814095,-119.74785,248.88,336.71549362204377,3.33,19.35484,272.63,0 / 0,19730,2015-10-30 10:48:52:053
0.2179,-2.235,10.2556,1.0942,1.243,9.6658,0.0049,-0.7624,-2.3188,43.3,-5.8,-27.4,265.95,-6.95,-5.71,36.814095,-119.74785,248.88,336.71549362204377,3.33,19.35484,272.63,0 / 0,19832,2015-10-30 10:48:52:155
-0.2753,-2.0722,9.6055,1.0865,1.4994,9.6303,0.0452,-0.3128,-2.5498,39.5,7.1,-28.9,283.63,-8.43,-6.74,36.814095,-119.74785,248.88,336.71549362204377,3.33,19.35484,272.63,0 / 0,19934,2015-10-30 10:48:52:257
-0.7805,-1.4832,9.8007,0.9476,1.5527,9.6365,-0.1527,-0.369,-2.6719,34.9,16.4,-31.3,297.76,-9.05,-6.13,36.814095,-119.74785,248.88,336.71549362204377,3.33,19.35484,272.63,0 / 0,20036,2015-10-30 10:48:52:359
-2.3152,-2.1967,10.7571,0.699,1.4681,9.6709,-0.0501,-0.1161,-2.6634,27.2,26.2,-31.4,315.46,-8.67,-4.87,36.814095,-119.74785,248.88,336.71549362204377,3.33,19.35484,272.63,0 / 0,20137,2015-10-30 10:48:52:460
-2.8407,-1.3036,9.2153,0.3029,1.4771,9.69,-0.2162,-0.0379,-2.0537,18.6,32.2,-33.1,330.54,-8.93,-2.93,36.814095,-119.74785,248.88,336.71549362204377,3.33,19.35484,272.63,0 / 0,20240,2015-10-30 10:48:52:563
-2.8168,-0.1413,8.4839,-0.1838,1.1891,9.7326,-0.1405,0.0367,-1.7532,10.8,35.8,-29.8,344.65,-7.25,0.3,36.814095,-119.74785,248.88,336.71549362204377,3.33,19.35484,272.63,0 / 0,20342,2015-10-30 10:48:52:665
-1.664,0.9062,9.1159,-0.4738,0.9459,9.7494,-0.1234,0.0586,-0.8039,7.8,37.4,-30.1,350.46,-5.83,2.46,36.814095,-119.74785,248.88,336.71549362204377,3.33,19.35484,272.63,0 / 0,20444,2015-10-30 10:48:52:767
-0.8236,1.1612,9.6893,-0.4666,0.7574,9.7662,-0.2431,-0.1967,-0.5718,5.3,38.4,-28.5,354.78,-4.43,2.74,36.814095,-119.74785,248.88,336.71549362204377,3.33,19.35484,272.63,0 / 0,20546,2015-10-30 10:48:52:869
-1.1265,0.7266,10.2352,-0.3962,0.5382,9.7839,-0.1869,-0.0599,-0.4484,3.9,39.0,-28.1,355.95,-3.15,2.32,36.814095,-119.74785,248.88,336.71549362204377,3.33,19.35484,272.63,0 / 0,20648,2015-10-30 10:48:52:971
-0.6452,0.4453,9.8845,-0.2791,0.5228,9.7887,0.0049,-0.0782,-0.1478,1.3,39.7,-27.0,359.7,-3.03,1.66,36.814095,-119.74785,248.88,336.71549362204377,3.33,19.35484,272.63,0 / 0,20750,2015-10-30 10:48:53:073
-0.3436,0.34,9.9814,-0.2455,0.5806,9.7864,0.0159,-0.0391,-0.1613,0.0,40.0,-26.8,0.99,-3.36,1.52,36.814095,-119.74785,248.88,336.71549362204377,3.33,19.35484,272.63,0 / 0,20852,2015-10-30 10:48:53:175
-0.7266,0.6644,9.5948,-0.2912,0.5666,9.7859,-0.0257,0.0941,-0.1185,-1.1,40.1,-27.6,2.53,-3.31,1.7,36.814095,-119.74785,248.88,336.71549362204377,3.33,19.35484,272.63,0 / 0,20954,2015-10-30 10:48:53:277
-0.2885,0.8511,9.2883,-0.3011,0.5693,9.7855,0.0049,-0.1393,-0.1051,-1.6,40.0,-27.7,3.94,-3.33,1.76,36.814095,-119.74785,248.88,336.71549362204377,3.33,19.35484,272.63,0 / 0,21056,2015-10-30 10:48:53:379
-0.6189,1.0415,9.517,-0.2891,0.4694,9.7911,-0.0965,0.0012,-0.2004,-2.2,39.9,-27.5,3.85,-2.87,1.66,36.814095,-119.74785,248.88,336.71549362204377,3.33,19.35484,272.63,0 / 0,21158,2015-10-30 10:48:53:481
-0.2322,1.1277,10.2101,-0.278,0.3593,9.7961,-0.1283,0.0403,-0.1955,-2.7,40.0,-26.9,5.26,-2.37,1.66,36.814095,-119.74785,248.88,336.71549362204377,3.33,19.35484,272.63,0 / 0,21260,2015-10-30 10:48:53:583
-0.7709,1.1875,9.0992,-0.4268,0.3163,9.7923,0.0,0.1613,-0.1148,-3.6,40.2,-26.5,6.94,-1.92,2.14,36.814095,-119.74785,248.88,336.71549362204377,3.33,19.35484,272.63,0 / 0,21362,2015-10-30 10:48:53:685
-0.3891,1.3695,9.4715,-0.4427,0.2664,9.793,-0.0574,0.0391,0.0281,-4.1,40.2,-25.8,7.21,-1.59,2.54,36.814095,-119.74785,248.88,336.71549362204377,3.33,19.35484,272.63,0 / 0,21464,2015-10-30 10:48:53:787
-0.2131,1.5311,8.9399,-0.441,0.335,9.791,0.0305,-0.0819,0.0538,-4.4,40.3,-25.4,7.23,-1.77,2.69,36.814095,-119.74785,248.88,336.71549362204377,3.33,19.35484,272.63,0 / 0,21566,2015-10-30 10:48:53:889
-0.5183,1.3731,9.9575,-0.3785,0.3391,9.7935,-0.0623,-0.0586,0.0134,-4.5,40.2,-25.2,6.96,-2.02,2.27,36.814095,-119.74785,248.88,336.71549362204377,3.33,19.35484,272.63,0 / 0,21668,2015-10-30 10:48:53:991
-0.7123,1.2941,10.234,-0.3369,0.3969,9.7928,0.11,-0.0965,0.1295,-4.7,40.1,-25.0,8.26,-2.12,2.15,36.814095,-119.74785,248.88,336.71549362204377,3.33,19.35484,272.63,0 / 0,21770,2015-10-30 10:48:54:093
-0.0024,-0.0802,13.8301,-0.0222,0.1655,9.8052,-0.4032,0.1246,0.121,-5.1,40.1,-24.4,6.99,-1.62,-0.03,36.814095,-119.74785,248.88,336.71549362204377,3.33,19.35484,272.63,0 / 0,21872,2015-10-30 10:48:54:195
0.6249,0.7326,8.8765,0.0862,0.6009,9.7878,0.1991,-0.2724,0.2224,-5.3,40.2,-23.8,6.6,-3.51,-0.5,36.814095,-119.74785,248.88,336.71549362204377,3.33,19.35484,272.63,0 / 0,21974,2015-10-30 10:48:54:297
-0.5351,0.5746,9.4104,0.1728,0.6704,9.7822,0.0415,-0.033,-0.0635,-5.6,40.3,-23.7,7.64,-3.92,-1.01,36.814095,-119.74785,248.88,336.71549362204377,3.33,19.35484,272.63,0 / 0,22076,2015-10-30 10:48:54:399
-0.2598,1.1001,8.1547,0.1034,0.8905,9.7656,0.1613,0.0318,0.0073,-5.8,40.3,-24.6,7.76,-5.21,-0.61,36.814095,-119.74785,248.88,336.71549362204377,3.33,19.35484,272.63,0 / 0,22177,2015-10-30 10:48:54:500
0.3089,0.7051,10.3693,0.1459,0.9838,9.7561,0.0281,-0.121,-0.1344,-6.7,40.3,-25.6,8.86,-5.76,-0.86,36.814095,-119.74785,248.88,336.71549362204377,3.33,19.35484,272.63,0 / 0,22280,2015-10-30 10:48:54:603
0.4848,0.4824,9.4559,0.3067,1.0756,9.7427,0.1808,-0.1381,-0.2016,-7.7,40.3,-26.3,9.75,-6.19,-1.49,36.814095,-119.74785,248.88,336.71549362204377,3.33,19.35484,272.63,0 / 0,22382,2015-10-30 10:48:54:705
-0.1736,-0.5543,11.9303,0.5827,0.511,9.776,-0.4068,-0.1014,-0.4423,-10.7,40.6,-26.1,12.56,-2.99,-3.41,36.814095,-119.74785,248.88,336.71549362204377,3.33,19.35484,272.63,0 / 0,22484,2015-10-30 10:48:54:807
1.403,0.6153,9.2823,0.6195,0.5657,9.7707,-0.1833,0.0721,-0.2272,-13.4,40.5,-25.4,15.08,-3.61,-3.47,36.814095,-119.74785,248.88,336.71549362204377,3.33,19.35484,272.63,0 / 0,22586,2015-10-30 10:48:54:909
-0.3172,1.1779,8.1151,0.3317,0.5661,9.7847,0.0513,0.3848,-0.0489,-16.1,40.2,-25.3,19.77,-3.15,-2.57,36.814095,-119.74785,248.88,336.71549362204377,3.33,19.35484,272.63,0 / 0,22688,2015-10-30 10:48:55:011
0.0168,0.753,9.7564,0.1449,0.7469,9.7771,0.1271,0.1515,0.1368,-18.0,38.7,-26.8,23.03,-4.2,-1.3,36.814095,-119.74785,248.88,336.71549362204377,3.33,19.35484,272.63,0 / 0,22790,2015-10-30 10:48:55:113
0.2933,0.8775,10.1825,-0.0218,0.9741,9.7581,0.4117,0.0672,0.292,-18.6,36.9,-28.6,25.76,-5.02,0.01,36.814095,-119.74785,248.88,336.71549362204377,3.33,19.35484,272.63,0 / 0,22892,2015-10-30 10:48:55:215
0.4118,-0.0838,12.5767,0.2151,1.0289,9.7502,-0.215,-0.16,0.1075,-19.0,34.1,-31.1,26.26,-6.02,-1.26,36.814095,-119.74785,248.88,336.71549362204377,3.33,19.35484,272.63,0 / 0,22994,2015-10-30 10:48:55:317
-0.0419,0.5567,9.1435,0.4088,0.9325,9.7537,0.0171,-0.2859,0.1906,-18.8,32.3,-32.3,27.15,-5.46,-1.9,36.814095,-119.74785,248.88,336.71549362204377,3.33,19.35484,272.63,0 / 0,23096,2015-10-30 10:48:55:419
0.3328,0.1101,9.0237,0.5957,0.8516,9.7514,-0.1258,0.292,-0.0232,-18.0,30.2,-33.1,25.91,-4.98,-3.5,36.814095,-119.74785,248.88,336.71549362204377,3.33,19.35484,272.63,0 / 0,23197,2015-10-30 10:48:55:520
0.4645,1.1372,6.4799,0.4165,1.048,9.7416,0.248,0.1112,-0.0733,-16.8,29.0,-33.5,25.81,-5.26,-2.64,36.814095,-119.74785,248.88,336.71549362204377,3.33,19.35484,272.63,0 / 0,23300,2015-10-30 10:48:55:623
-0.8547,0.1784,10.4232,0.1706,0.8794,9.7657,-0.3067,0.3054,-0.3286,-14.3,27.2,-34.6,23.2,-5.52,-1.66,36.814095,-119.74785,248.88,336.71549362204377,3.33,19.35484,272.63,0 / 0,23402,2015-10-30 10:48:55:725
0.0838,0.7661,9.2727,0.0725,1.0264,9.7525,0.2798,-0.0232,0.1381,-12.3,26.3,-35.1,21.91,-5.44,-0.41,36.814095,-119.74785,248.88,336.71549362204377,3.33,19.35484,272.63,0 / 0,23504,2015-10-30 10:48:55:827
-0.5567,-0.9313,13.9977,0.1816,0.6866,9.7809,-0.022,0.4484,0.1173,-9.5,25.1,-35.5,16.15,-5.12,-1.43,36.814095,-119.74785,248.88,336.71549362204377,3.33,19.35484,272.63,0 / 0,23606,2015-10-30 10:48:55:929
-0.0718,0.1018,9.7432,-0.0077,0.6479,9.7852,-0.1845,0.11,-0.1002,-7.6,24.7,-35.5,16.02,-4.4,-0.12,36.814095,-119.74785,248.88,336.71549362204377,3.33,19.35484,272.63,0 / 0,23708,2015-10-30 10:48:56:031
-0.2478,0.8021,8.0852,-0.1284,0.363,9.7991,-0.1344,0.1796,0.0073,-5.1,24.5,-35.1,11.48,-2.37,0.6,36.814095,-119.74785,248.88,336.71549362204377,3.33,19.35484,272.63,0 / 0,23810,2015-10-30 10:48:56:133
0.3903,0.8835,9.6438,-0.0113,0.2977,9.8021,-0.0806,-0.0208,0.0269,-2.6,24.8,-34.8,6.66,-1.74,0.07,36.814095,-119.74785,248.88,336.71549362204377,3.33,19.35484,272.63,0 / 0,23912,2015-10-30 10:48:56:235
-0.1664,0.7171,11.0504,-0.0028,0.326,9.8012,0.4191,-0.1662,0.358,-1.3,24.9,-34.6,2.44,-1.6,0.18,36.814095,-119.74785,248.88,336.71549362204377,3.33,19.35484,272.63,0 / 0,24014,2015-10-30 10:48:56:337
-0.346,-1.1504,14.4538,0.4331,0.4002,9.7889,-0.3421,-0.5473,0.0367,0.0,24.6,-34.2,358.17,-2.87,-1.44,36.814095,-119.74785,248.88,336.71549362204377,3.33,19.35484,272.63,0 / 0,24116,2015-10-30 10:48:56:439
0.1784,0.2071,9.5696,0.6538,0.6425,9.7637,0.2138,-0.4239,0.1124,0.2,24.3,-34.2,355.81,-3.32,-3.2,36.814095,-119.74785,248.88,336.71549362204377,3.33,19.35484,272.63,0 / 0,24218,2015-10-30 10:48:56:541
-0.1951,0.1927,8.8933,0.7054,0.6709,9.7582,0.1124,0.1503,-0.044,0.0,24.1,-34.1,354.09,-3.98,-4.59,36.814095,-119.74785,248.88,336.71549362204377,3.33,19.35484,272.63,0 / 0,24319,2015-10-30 10:48:56:642
0.5662,1.0199,6.9899,0.5736,0.9387,9.7447,0.4728,0.1112,0.0122,-0.7,24.4,-34.0,357.89,-5.49,-3.37,36.814095,-119.74785,248.88,336.71549362204377,3.33,19.35484,272.63,0 / 0,24422,2015-10-30 10:48:56:745
-0.2993,0.243,9.8174,0.3987,1.084,9.7384,0.0428,0.1869,-0.2688,-1.3,25.1,-34.2,358.86,-6.32,-2.65,36.814095,-119.74785,248.88,336.71549362204377,3.33,19.35484,272.63,0 / 0,24524,2015-10-30 10:48:56:847
0.7673,0.3436,9.7145,0.2766,1.0343,9.748,-0.27,-0.077,-0.2089,-1.5,25.9,-35.0,0.1,-6.32,-1.55,36.814095,-119.74785,248.88,336.71549362204377,3.33,19.35484,272.63,0 / 0,24626,2015-10-30 10:48:56:949
-0.3244,-1.0463,12.3948,0.2444,0.4955,9.7911,-0.7575,0.1197,-0.4789,-1.9,26.8,-35.7,2.06,-3.63,-1.51,36.814095,-119.74785,248.88,336.71549362204377,3.33,19.35484,272.63,0 / 0,24728,2015-10-30 10:48:57:051
0.1688,0.2047,9.1351,0.3521,0.3627,9.7936,-0.2749,-0.0855,-0.1173,-2.4,28.5,-36.3,1.49,-2.58,-1.91,36.814095,-119.74785,248.88,336.71549362204377,3.33,19.35484,272.63,0 / 0,24829,2015-10-30 10:48:57:152
-1.0798,0.9242,8.2887,0.3445,0.2855,9.7964,-0.0318,-0.0354,0.0049,-2.7,29.5,-36.9,3.13,-1.67,-2.01,36.814095,-119.74785,248.88,336.71549362204377,3.33,19.35484,272.63,0 / 0,24932,2015-10-30 10:48:57:255
0.723,1.2151,10.0066,0.4503,0.3494,9.7901,0.0367,0.1173,0.171,-2.4,29.3,-37.5,0.92,-1.81,-2.34,36.814095,-119.74785,248.88,336.71549362204377,3.33,19.35484,272.63,0 / 0,25034,2015-10-30 10:48:57:357
0.5495,0.9828,10.58,0.3526,0.474,9.7888,0.2651,0.1038,0.3079,-1.3,28.0,-38.7,359.22,-2.77,-2.06,36.814095,-119.74785,248.88,336.71549362204377,3.33,19.35484,272.63,0 / 0,25136,2015-10-30 10:48:57:459
-1.1169,-1.0367,14.8536,0.4141,0.351,9.7916,-0.2627,0.1613,-0.0428,-0.3,26.7,-39.6,356.3,-2.49,-2.66,36.814095,-119.74785,248.88,336.71549362204377,3.33,19.35484,272.63,0 / 0,25237,2015-10-30 10:48:57:560
-0.2789,-0.1616,9.5792,0.5163,0.5263,9.7789,0.0904,0.0476,0.1136,1.3,24.3,-40.5,353.67,-2.94,-2.7,36.814095,-119.74785,248.88,336.71549362204377,3.33,19.35484,272.63,0 / 0,25340,2015-10-30 10:48:57:663
-0.4298,-0.1197,8.7831,0.3894,0.5556,9.7832,-0.0195,0.1332,0.0171,2.5,22.4,-40.8,348.88,-3.13,-2.46,36.814095,-119.74785,248.88,336.71549362204377,3.33,19.35484,272.63,0 / 0,25442,2015-10-30 10:48:57:765
-0.0431,0.747,7.6016,0.2463,0.776,9.7728,0.1393,0.1552,0.0012,4.5,19.4,-41.0,344.23,-4.3,-1.7,36.814095,-119.74785,248.88,336.71549362204377,3.33,19.35484,272.63,0 / 0,25544,2015-10-30 10:48:57:867
-0.5207,-0.0156,10.8517,0.1676,0.7181,9.7789,0.0134,0.0024,-0.2456,6.3,17.2,-40.7,341.3,-4.39,-1.11,36.814095,-119.74785,248.88,336.71549362204377,3.33,19.35484,272.63,0 / 0,25646,2015-10-30 10:48:57:969
1.251,-0.3364,10.1359,0.1598,0.7541,9.7763,0.0391,-0.0452,-0.1026,8.9,14.9,-40.7,331.88,-4.41,-0.94,36.814095,-119.74785,248.88,336.71549362204377,3.33,19.35484,272.63,0 / 0,25748,2015-10-30 10:48:58:071
-0.2622,-0.4549,9.5972,0.1305,0.2383,9.8029,-0.0574,-0.0965,-0.0867,10.8,13.8,-39.8,323.36,-2.09,-0.7,36.814095,-119.74785,248.88,336.71549362204377,3.33,19.35484,272.63,0 / 0,25849,2015-10-30 10:48:58:172
0.1221,-0.1891,8.904,0.3162,-0.0026,9.8016,-0.1051,-0.0586,0.0623,13.0,13.2,-37.9,313.06,-0.38,-1.78,36.814095,-119.74785,248.88,336.71549362204377,3.33,19.35484,272.63,0 / 0,25953,2015-10-30 10:48:58:276
-0.152,0.6704,8.114,0.3227,-0.0871,9.801,-0.0843,0.0415,0.088,14.7,12.9,-36.4,308.1,0.51,-1.89,36.814095,-119.74785,248.88,336.71549362204377,3.33,19.35484,272.63,0 / 0,26055,2015-10-30 10:48:58:378
-0.2011,0.2035,10.1813,0.3287,-0.1756,9.7996,-0.0965,0.022,0.1319,16.3,12.4,-35.3,303.6,0.83,-2.17,36.814095,-119.74785,248.88,336.71549362204377,3.33,19.35484,272.63,0 / 0,26156,2015-10-30 10:48:58:479
0.3735,0.656,10.1131,0.2834,-0.0625,9.8024,0.2566,0.0049,0.3824,18.3,11.2,-34.3,299.62,0.36,-1.66,36.814095,-119.74785,248.88,336.71549362204377,3.33,19.35484,272.63,0 / 0,26260,2015-10-30 10:48:58:583
-0.3867,-0.7135,15.2199,0.5422,-0.3,9.7871,0.0648,0.1381,0.1478,19.1,10.4,-33.3,295.3,0.58,-2.57,36.814095,-119.74785,248.88,336.71549362204377,3.33,19.35484,272.63,0 / 0,26360,2015-10-30 10:48:58:683
0.2322,-0.2993,8.4348,0.6983,0.235,9.7789,0.7697,-0.3176,0.1943,18.9,9.1,-32.2,292.77,0.42,-3.48,36.814095,-119.74785,248.88,336.71549362204377,3.33,19.35484,272.63,0 / 0,26462,2015-10-30 10:48:58:785
0.34,-0.1413,8.2013,0.5767,0.564,9.7734,0.2834,0.1674,0.0195,17.6,8.3,-31.8,295.43,-2.87,-3.73,36.814095,-119.74785,248.88,336.71549362204377,3.33,19.35484,272.63,0 / 0,26564,2015-10-30 10:48:58:887
0.1592,0.893,7.0976,0.4421,0.9214,9.7533,0.0941,0.077,-0.1112,14.9,7.1,-31.8,300.6,-5.16,-2.78,36.814095,-119.74785,248.88,336.71549362204377,3.33,19.35484,272.63,0 / 0,26666,2015-10-30 10:48:58:989
-0.3041,0.4896,9.845,0.4794,0.9159,9.752,-0.033,-0.1552,-0.2138,12.9,6.5,-32.0,304.45,-5.4,-2.65,36.814095,-119.74785,248.88,336.71549362204377,3.33,19.35484,272.63,0 / 0,26768,2015-10-30 10:48:59:091
0.5507,-0.334,10.9271,0.6506,0.736,9.7573,-0.3641,-0.2395,-0.2798,9.6,6.1,-31.6,306.0,-4.9,-3.46,36.814095,-119.74785,248.88,336.71549362204377,3.33,19.35484,272.63,0 / 0,26870,2015-10-30 10:48:59:193
0.5997,-0.1161,9.341,0.7091,0.4503,9.7706,0.3604,-0.2773,0.011,2.8,6.6,-31.5,328.1,-2.46,-4.03,36.814095,-119.74785,248.88,336.71549362204377,3.33,19.35484,272.63,0 / 0,26972,2015-10-30 10:48:59:295
0.7266,0.2861,10.1682,0.8308,0.364,9.7646,0.0183,0.2541,-0.0464,-2.2,6.5,-29.6,354.7,-2.44,-5.28,36.814095,-119.74785,248.88,336.71549362204377,3.33,19.35484,272.63,0 / 0,27074,2015-10-30 10:48:59:397
0.3316,1.5155,8.0996,0.6087,0.3712,9.7807,-0.0391,0.2505,-0.0171,-6.4,5.5,-28.7,30.51,-2.17,-3.56,36.814095,-119.74785,248.88,336.71549362204377,3.33,19.35484,272.63,0 / 0,27176,2015-10-30 10:48:59:499
0.0874,0.9457,9.3398,0.564,0.3314,9.7848,-0.0562,0.099,0.0024,-9.7,4.6,-28.9,53.87,-2.0,-3.41,36.814095,-119.74785,248.88,336.71549362204377,3.33,19.35484,272.63,0 / 0,27278,2015-10-30 10:48:59:601
1.3108,0.6728,10.5381,0.616,0.3621,9.7806,-0.2321,-0.2847,0.2944,-15.6,3.2,-26.6,74.34,-2.16,-3.26,36.814095,-119.74785,248.88,336.71549362204377,3.33,19.35484,272.63,0 / 0,27380,2015-10-30 10:48:59:703
-0.2107,-1.4437,13.0843,0.9642,0.0057,9.7591,-0.3775,-0.4325,-0.0379,-19.6,2.7,-22.7,80.42,-0.05,-5.05,36.814095,-119.74785,248.88,336.71549362204377,3.33,19.35484,272.63,0 / 0,27482,2015-10-30 10:48:59:805
1.0235,-0.3472,9.2213,1.1985,0.0636,9.7329,0.0244,-0.474,0.2773,-22.8,3.3,-20.9,81.26,-0.41,-6.23,36.814095,-119.74785,248.88,336.71549362204377,3.33,19.35484,272.63,0 / 0,27584,2015-10-30 10:48:59:907
0.4764,0.2753,8.8573,1.232,-0.0417,9.7289,0.2908,-0.0281,0.099,-23.7,3.8,-19.2,79.67,0.3,-7.5,36.814095,-119.74785,248.88,336.71549362204377,3.33,19.35484,272.63,0 / 0,27686,2015-10-30 10:49:00:009
0.6524,0.5531,7.9571,1.1856,0.2407,9.7317,0.2541,0.1038,-0.0415,-24.6,4.6,-17.8,76.52,-1.11,-7.18,36.814095,-119.74785,248.88,336.71549362204377,3.33,19.35484,272.63,0 / 0,27788,2015-10-30 10:49:00:111
0.3412,-0.9433,10.5656,1.0503,0.3061,9.7454,-0.0757,0.1417,-0.4386,-24.9,6.3,-15.6,73.98,-1.86,-6.55,36.814095,-119.74785,248.88,336.71549362204377,3.33,19.35484,272.63,0 / 0,27890,2015-10-30 10:49:00:213
1.4102,-1.3072,9.9228,1.0044,0.0434,9.755,-0.5205,-0.0501,-0.27,-24.3,7.8,-14.4,69.65,-1.18,-5.74,36.814095,-119.74785,248.88,336.71549362204377,3.33,19.35484,272.63,0 / 0,27992,2015-10-30 10:49:00:315
1.002,-1.1217,11.2061,1.1554,-0.3955,9.7303,-0.5852,-0.1772,-0.182,-23.6,9.1,-13.5,69.22,1.83,-6.45,36.814095,-119.74785,248.88,336.71549362204377,3.33,19.35484,272.63,0 / 0,28094,2015-10-30 10:49:00:417
0.4621,0.0539,9.1626,1.1755,-0.5451,9.7207,-0.2077,0.0648,-0.0037,-22.6,11.5,-12.1,62.44,3.19,-6.9,36.814095,-119.74785,248.88,336.71549362204377,3.33,19.35484,272.63,0 / 0,28196,2015-10-30 10:49:00:519
0.3029,0.2741,8.7376,0.886,-0.5918,9.7486,-0.0171,0.0965,-0.0586,-21.5,13.8,-11.3,56.36,3.41,-5.52,36.814095,-119.74785,248.88,336.71549362204377,3.33,19.35484,272.63,0 / 0,28298,2015-10-30 10:49:00:621
0.516,0.0503,9.5744,0.7095,-0.5357,9.7663,0.0086,0.2248,-0.0696,-20.8,15.7,-11.3,52.69,3.23,-4.71,36.814095,-119.74785,248.88,336.71549362204377,3.33,19.35484,272.63,0 / 0,28400,2015-10-30 10:49:00:723
0.4549,0.2179,11.4132,0.5182,-0.4192,9.784,0.1136,0.0574,0.1588,-19.9,18.6,-12.0,46.45,2.7,-3.12,36.814095,-119.74785,248.88,336.71549362204377,3.33,19.35484,272.63,0 / 0,28502,2015-10-30 10:49:00:825
0.674,-1.719,12.7515,0.6369,-0.4606,9.7751,-0.5791,-0.3775,-0.1772,-19.5,20.8,-12.5,41.68,1.78,-3.09,36.814095,-119.74785,248.88,336.71549362204377,3.33,19.35484,272.63,0 / 0,28603,2015-10-30 10:49:00:926
0.1784,-0.9397,9.2668,0.6933,-0.4648,9.7711,0.2749,-0.5571,0.2321,-19.2,24.2,-13.4,37.74,2.72,-4.06,36.814095,-119.74785,248.88,336.71549362204377,3.33,19.35484,272.63,0 / 0,28706,2015-10-30 10:49:01:029
0.5423,-1.0654,9.681,1.0109,-0.3061,9.7496,0.0623,-0.1784,0.11,-19.3,26.4,-14.3,34.59,2.1,-5.7,36.814095,-119.74785,248.88,336.71549362204377,3.33,19.35484,272.63,0 / 0,28808,2015-10-30 10:49:01:131
0.401,-0.1951,7.8027,0.9536,-0.1074,9.7596,0.1588,0.1075,-0.055,-20.1,29.3,-16.5,32.47,0.88,-5.81,36.814095,-119.74785,248.88,336.71549362204377,3.33,19.35484,272.63,0 / 0,28910,2015-10-30 10:49:01:233
0.0204,-0.3807,8.7807,0.7903,-0.0679,9.7745,0.066,0.2676,-0.1319,-21.9,31.6,-18.6,32.63,0.4,-4.62,36.814095,-119.74785,248.88,336.71549362204377,3.33,19.35484,272.63,0 / 0,29012,2015-10-30 10:49:01:335
0.1425,-0.6428,9.4391,0.5521,0.0222,9.7911,0.1686,0.1881,0.0745,-24.9,34.6,-20.2,34.03,0.17,-3.88,36.814095,-119.74785,248.88,336.71549362204377,3.33,19.35484,272.63,0 / 0,29114,2015-10-30 10:49:01:437
1.0558,-1.9106,12.9814,0.5688,-0.2296,9.7875,-0.4435,-0.1491,-0.2847,-28.8,38.0,-18.9,36.28,-0.22,-3.04,36.814095,-119.74785,248.88,336.71549362204377,3.33,19.35484,272.63,0 / 0,29216,2015-10-30 10:49:01:539
1.1827,-1.1983,9.9192,0.5415,-0.2484,9.7885,0.1136,-0.1674,-0.022,-38.1,44.8,-14.2,39.82,1.45,-3.17,36.814095,-119.74785,248.88,336.71549362204377,3.33,19.35484,272.63,0 / 0,29317,2015-10-30 10:49:01:640
0.3424,-1.3611,8.9088,0.5765,-0.2404,9.7867,0.1808,-0.0134,0.0672,-46.0,48.8,-11.5,42.93,1.45,-3.47,36.814095,-119.74785,248.88,336.71549362204377,3.33,19.35484,272.63,0 / 0,29420,2015-10-30 10:49:01:743
0.0335,-1.3719,8.7436,0.5356,-0.1581,9.7907,0.0428,0.0867,0.1698,-57.4,51.1,-6.6,48.03,0.82,-3.08,36.814095,-119.74785,248.88,336.71549362204377,3.33,19.35484,272.63,0 / 0,29522,2015-10-30 10:49:01:845
0.0611,-1.5395,9.748,0.4454,-0.3081,9.7917,-0.1051,0.1417,0.2578,-63.4,52.5,-3.1,49.91,1.4,-2.99,36.814095,-119.74785,248.88,336.71549362204377,3.33,19.35484,272.63,0 / 0,29624,2015-10-30 10:49:01:947
0.0227,-0.8344,9.1303,0.2375,-0.3829,9.7963,-0.0305,0.2175,0.336,-67.4,52.6,1.0,51.7,2.23,-1.99,36.814095,-119.74785,248.88,336.71549362204377,3.33,19.35484,272.63,0 / 0,29726,2015-10-30 10:49:02:049
-0.0323,-0.4477,10.0221,0.106,-0.5085,9.7929,-0.2162,0.1124,0.2346,-68.9,53.7,1.9,51.97,2.73,-0.76,36.814095,-119.74785,248.88,336.71549362204377,3.33,19.35484,272.63,0 / 0,29828,2015-10-30 10:49:02:151
-0.3519,-0.4369,9.1219,-0.065,-0.644,9.7853,-0.1038,0.1087,-0.011,-70.1,53.2,2.3,52.84,3.66,0.27,36.814095,-119.74785,248.88,336.71549362204377,3.33,19.35484,272.63,0 / 0,29929,2015-10-30 10:49:02:252
-0.7614,-0.8583,9.7276,0.0285,-0.7176,9.7803,-0.0929,0.0195,-0.1686,-72.0,50.9,5.5,54.54,4.01,-0.1,36.814095,-119.74785,248.88,336.71549362204377,3.33,19.35484,272.63,0 / 0,30032,2015-10-30 10:49:02:355
-0.4022,-0.8068,10.2328,0.0306,-0.8104,9.7731,0.0684,-0.325,-0.1112,-72.3,47.8,7.1,56.05,4.67,0.36,36.814095,-119.74785,248.88,336.71549362204377,3.33,19.35484,272.63,0 / 0,30134,2015-10-30 10:49:02:457
-0.261,-0.6943,9.42,0.0284,-0.7628,9.7769,-0.0257,0.2053,-0.0684,-72.1,45.1,8.3,57.77,4.48,-0.53,36.814095,-119.74785,248.88,336.71549362204377,3.33,19.35484,272.63,0 / 0,30236,2015-10-30 10:49:02:559
-0.1305,-0.5279,9.432,0.1949,-0.6578,9.7826,0.0305,-0.0562,-0.0904,-72.3,43.2,8.9,58.95,3.98,-0.94,36.814095,-119.74785,248.88,336.71549362204377,3.33,19.35484,272.63,0 / 0,30338,2015-10-30 10:49:02:661
-0.2071,-0.5207,9.6043,0.2473,-0.6818,9.7798,-0.0147,-0.0562,0.0391,-72.3,41.5,9.8,59.53,4.02,-1.31,36.814095,-119.74785,248.88,336.71549362204377,3.33,19.35484,272.63,0 / 0,30440,2015-10-30 10:49:02:763
0.0622,-0.3783,9.7695,0.2582,-0.7055,9.7778,-0.0305,0.0,-0.0171,-72.2,41.2,10.2,60.14,4.04,-1.54,36.814095,-119.74785,248.88,336.71549362204377,3.33,19.35484,272.63,0 / 0,30542,2015-10-30 10:49:02:865
-0.1496,-0.4956,9.5301,0.244,-0.7238,9.7769,-0.0183,0.0159,-0.0562,-71.8,41.4,11.0,60.09,4.21,-1.47,36.814095,-119.74785,248.88,336.71549362204377,3.33,19.35484,272.63,0 / 0,30644,2015-10-30 10:49:02:967
-0.3531,-0.6309,9.8198,0.2377,-0.7408,9.7757,-0.0232,-0.0232,0.0134,-71.4,41.6,11.3,59.14,4.28,-1.42,36.814095,-119.74785,248.88,336.71549362204377,3.33,19.35484,272.63,0 / 0,30746,2015-10-30 10:49:03:069
-0.0491,-0.559,9.8677,0.2335,-0.7598,9.7744,-0.0452,-0.0024,-0.0061,-71.2,41.6,11.6,59.09,4.44,-1.37,36.814095,-119.74785,248.88,336.71549362204377,3.33,19.35484,272.63,0 / 0,30848,2015-10-30 10:49:03:171
-0.1317,-0.8332,10.653,0.2299,-0.8377,9.7681,-0.1466,-0.0244,-0.0415,-71.1,41.3,12.0,59.66,4.78,-1.36,36.814095,-119.74785,248.88,336.71549362204377,3.33,19.35484,272.63,0 / 0,30949,2015-10-30 10:49:03:272