sep=;
ACCELEROMETER X (m/s²);ACCELEROMETER Y (m/s²);ACCELEROMETER Z (m/s²);GYROSCOPE X (rad/s);GYROSCOPE Y (rad/s);GYROSCOPE Z (rad/s);MAGNETIC FIELD X (μT);MAGNETIC FIELD Y (μT);MAGNETIC FIELD Z (μT);LOCATION Latitude : ;LOCATION Longitude : ;LOCATION Altitude ( m);LOCATION Altitude-google ( m);LOCATION Speed ( Kmh);LOCATION Accuracy ( m);LOCATION ORIENTATION (°);Satellites in range;Time since start in ms ;YYYY-MO-DD HH-MI-SS_SSS
-0.1448;-0.0311;9.681;0.0;0.0;0.0012;-55.0;-3.6;107.5;36.814346;-119.74833;;336.63804808386834;;124.322586;;0 / 0;31;2015-09-17 17:18:17:040
-0.1389;-0.0335;9.669;0.0024;0.0024;0.0;-55.1;-3.7;107.2;36.814346;-119.74833;;336.63804808386834;;124.322586;;0 / 0;133;2015-09-17 17:18:17:142
-0.1365;-0.0168;9.7181;-0.0012;0.0012;0.0012;-55.1;-3.7;107.1;36.814346;-119.74833;;336.63804808386834;;124.322586;;0 / 0;235;2015-09-17 17:18:17:244
-0.1389;-0.0204;9.6786;0.0;0.0012;0.0;-55.1;-3.7;107.2;36.814346;-119.74833;;336.63804808386834;;124.322586;;0 / 0;337;2015-09-17 17:18:17:346
-0.1329;-0.0299;9.6881;0.0012;-0.0012;0.0012;-55.1;-3.7;107.4;36.814346;-119.74833;;336.63804808386834;;124.322586;;0 / 0;439;2015-09-17 17:18:17:448
-0.1425;-0.0383;9.7097;0.0024;-0.0024;0.0024;-55.0;-3.7;108.0;36.814346;-119.74833;;336.63804808386834;;124.322586;;0 / 0;541;2015-09-17 17:18:17:550
-0.1329;-0.0215;9.663;0.0012;0.0037;0.0;-55.0;-3.7;108.2;36.814346;-119.74833;;336.63804808386834;;124.322586;;0 / 0;643;2015-09-17 17:18:17:652
-0.1281;-0.0407;9.7217;-0.0012;0.0;-0.0012;-55.0;-3.7;108.3;36.814346;-119.74833;;336.63804808386834;;124.322586;;0 / 0;745;2015-09-17 17:18:17:754
-0.146;-0.0227;9.6654;-0.0012;0.0012;-0.0024;-54.9;-3.7;108.2;36.814346;-119.74833;;336.63804808386834;;124.322586;;0 / 0;847;2015-09-17 17:18:17:856
-0.1329;-0.0287;9.6989;-0.0012;0.0012;-0.0012;-55.1;-3.7;107.9;36.814346;-119.74833;;336.63804808386834;;124.322586;;0 / 0;949;2015-09-17 17:18:17:958
-0.1317;-0.0323;9.6762;-0.0024;0.0024;-0.0012;-55.1;-3.7;107.8;36.814346;-119.74833;;336.63804808386834;;124.322586;;0 / 0;1051;2015-09-17 17:18:18:060
-0.1401;-0.0263;9.7241;0.0012;0.0012;0.0;-55.1;-3.7;107.6;36.814346;-119.74833;;336.63804808386834;;124.322586;;0 / 0;1153;2015-09-17 17:18:18:162
-0.1281;-0.0395;9.7013;0.0;0.0037;-0.0012;-55.0;-3.7;107.6;36.814346;-119.74833;;336.63804808386834;;124.322586;;0 / 0;1255;2015-09-17 17:18:18:264
-0.1353;-0.0263;9.6953;0.0012;0.0;-0.0012;-55.0;-3.7;107.5;36.814346;-119.74833;;336.63804808386834;;124.322586;;0 / 0;1357;2015-09-17 17:18:18:366
-0.1377;-0.0395;9.681;-0.0012;0.0012;-0.0012;-55.0;-3.7;107.5;36.814346;-119.74833;;336.63804808386834;;124.322586;;0 / 0;1459;2015-09-17 17:18:18:468
-0.1532;-0.0239;9.6929;0.0;0.0024;0.0;-55.0;-3.7;107.7;36.814346;-119.74833;;336.63804808386834;;124.322586;;0 / 0;1561;2015-09-17 17:18:18:570
-0.1413;-0.0156;9.6929;-0.0012;0.0012;0.0;-55.1;-3.7;107.6;36.814346;-119.74833;;336.63804808386834;;124.322586;;0 / 0;1664;2015-09-17 17:18:18:673
-0.1508;-0.0383;9.7636;0.0;0.0024;-0.0024;-55.1;-3.7;107.6;36.814346;-119.74833;;336.63804808386834;;124.322586;;0 / 0;1766;2015-09-17 17:18:18:775
-0.1425;-0.0275;9.73;0.0012;0.0012;0.0;-55.2;-3.7;107.6;36.814346;-119.74833;;336.63804808386834;;124.322586;;0 / 0;1867;2015-09-17 17:18:18:876
-0.1353;-0.0239;9.7013;0.0012;0.0024;-0.0012;-55.2;-3.7;107.6;36.814346;-119.74833;;336.63804808386834;;124.322586;;0 / 0;1969;2015-09-17 17:18:18:978
-0.1305;-0.0287;9.7181;0.0;0.0;0.0;-55.1;-3.7;107.7;36.814346;-119.74833;;336.63804808386834;;124.322586;;0 / 0;2072;2015-09-17 17:18:19:081
-0.1425;-0.0192;9.7205;0.0012;0.0;-0.0012;-55.1;-3.8;107.8;36.814346;-119.74833;;336.63804808386834;;124.322586;;0 / 0;2173;2015-09-17 17:18:19:182
-0.1413;-0.0215;9.6869;-0.0037;0.0;0.0;-55.1;-3.7;107.8;36.814346;-119.74833;;336.63804808386834;;124.322586;;0 / 0;2276;2015-09-17 17:18:19:285
-0.1341;-0.0287;9.7025;0.0012;0.0024;0.0;-55.1;-3.6;107.7;36.814346;-119.74833;;336.63804808386834;;124.322586;;0 / 0;2378;2015-09-17 17:18:19:387
-0.1413;-0.0215;9.7049;0.0024;0.0012;0.0;-55.1;-3.7;107.8;36.814346;-119.74833;;336.63804808386834;;124.322586;;0 / 0;2480;2015-09-17 17:18:19:489
-0.1437;-0.0347;9.6762;0.0;0.0;-0.0012;-55.2;-3.7;107.8;36.814346;-119.74833;;336.63804808386834;;124.322586;;0 / 0;2581;2015-09-17 17:18:19:590
-0.1221;-0.0192;9.7001;0.0;0.0;0.0;-55.2;-3.8;107.5;36.814346;-119.74833;;336.63804808386834;;124.322586;;0 / 0;2683;2015-09-17 17:18:19:692
-0.1425;-0.0204;9.7312;0.0012;0.0012;-0.0012;-55.2;-3.9;107.2;36.814346;-119.74833;;336.63804808386834;;124.322586;;0 / 0;2785;2015-09-17 17:18:19:794
-0.1484;-0.0192;9.6726;0.0012;0.0;0.0012;-55.1;-3.8;107.3;36.814346;-119.74833;;336.63804808386834;;124.322586;;0 / 0;2887;2015-09-17 17:18:19:896
-0.1425;-0.0192;9.6989;0.0012;0.0;0.0012;-55.3;-3.7;107.4;36.814346;-119.74833;;336.63804808386834;;124.322586;;0 / 0;2989;2015-09-17 17:18:19:998
-0.1425;-0.0323;9.7169;0.0024;0.0;-0.0012;-55.3;-3.6;107.5;36.814346;-119.74833;;336.63804808386834;;124.322586;;0 / 0;3091;2015-09-17 17:18:20:100
-0.1448;-0.0347;9.6845;0.0024;-0.0012;0.0;-55.3;-3.7;107.5;36.814346;-119.74833;;336.63804808386834;;124.322586;;0 / 0;3193;2015-09-17 17:18:20:202
-0.146;-0.0251;9.6798;0.0024;0.0012;0.0;-55.2;-3.8;107.4;36.814346;-119.74833;;336.63804808386834;;124.322586;;0 / 0;3295;2015-09-17 17:18:20:304
-0.1341;-0.0299;9.6953;0.0024;0.0012;0.0;-55.2;-3.8;107.5;36.814346;-119.74833;;336.63804808386834;;124.322586;;0 / 0;3398;2015-09-17 17:18:20:407
-0.1425;-0.0419;9.6977;0.0;0.0037;-0.0012;-55.1;-4.1;107.5;36.814346;-119.74833;;336.63804808386834;;124.322586;;0 / 0;3499;2015-09-17 17:18:20:508
-0.1329;-0.0383;9.6666;0.0;0.0;0.0012;-55.1;-4.0;107.5;36.814346;-119.74833;;336.63804808386834;;124.322586;;0 / 0;3601;2015-09-17 17:18:20:610
-0.1437;-0.012;9.6558;0.0;-0.0012;0.0012;-55.1;-4.0;107.3;36.814346;-119.74833;;336.63804808386834;;124.322586;;0 / 0;3703;2015-09-17 17:18:20:712
-0.1341;-0.0251;9.7252;0.0012;0.0;0.0012;-55.0;-3.9;107.3;36.814346;-119.74833;;336.63804808386834;;124.322586;;0 / 0;3806;2015-09-17 17:18:20:815
-0.1389;-0.0287;9.6917;0.0012;0.0;0.0012;-54.9;-3.9;107.5;36.814346;-119.74833;;336.63804808386834;;124.322586;;0 / 0;3907;2015-09-17 17:18:20:916
-0.1508;-0.0335;9.6582;0.0012;0.0012;0.0012;-54.9;-3.9;107.7;36.814346;-119.74833;;336.63804808386834;;124.322586;;0 / 0;4009;2015-09-17 17:18:21:018
-0.1317;-0.0192;9.6833;0.0012;0.0;0.0012;-55.0;-3.8;107.6;36.814346;-119.74833;;336.63804808386834;;124.322586;;0 / 0;4112;2015-09-17 17:18:21:121
-0.1413;-0.0371;9.7181;0.0024;0.0012;0.0;-55.1;-3.8;107.7;36.814346;-119.74833;;336.63804808386834;;124.322586;;0 / 0;4213;2015-09-17 17:18:21:222
-0.1401;-0.0431;9.6905;0.0024;0.0024;0.0;-55.1;-3.7;107.5;36.814346;-119.74833;;336.63804808386834;;124.322586;;0 / 0;4315;2015-09-17 17:18:21:324
-0.146;-0.0431;9.669;0.0037;-0.0012;0.0;-54.9;-3.7;107.6;36.814346;-119.74833;;336.63804808386834;;124.322586;;0 / 0;4418;2015-09-17 17:18:21:427
-0.1437;-0.0395;9.6917;0.0024;0.0012;0.0;-54.9;-3.6;107.6;36.814346;-119.74833;;336.63804808386834;;124.322586;;0 / 0;4519;2015-09-17 17:18:21:528
-0.1341;-0.0431;9.6822;0.0012;0.0012;0.0012;-54.9;-3.7;107.9;36.814346;-119.74833;;336.63804808386834;;124.322586;;0 / 0;4621;2015-09-17 17:18:21:630
-0.1305;-0.0395;9.6833;0.0037;0.0024;0.0;-55.0;-3.6;108.1;36.814346;-119.74833;;336.63804808386834;;124.322586;;0 / 0;4723;2015-09-17 17:18:21:732
-0.1341;-0.0431;9.6917;0.0024;0.0012;0.0;-55.0;-3.7;108.1;36.814346;-119.74833;;336.63804808386834;;124.322586;;0 / 0;4825;2015-09-17 17:18:21:834
-0.1437;-0.0431;9.6714;-0.0012;0.0;0.0012;-55.1;-3.5;107.6;36.814346;-119.74833;;336.63804808386834;;124.322586;;0 / 0;4930;2015-09-17 17:18:21:939
-0.1365;-0.0443;9.6678;0.0012;0.0;0.0;-55.1;-3.5;107.4;36.814346;-119.74833;;336.63804808386834;;124.322586;;0 / 0;5030;2015-09-17 17:18:22:039
-0.1413;-0.0431;9.6881;0.0;0.0;0.0024;-55.2;-3.5;107.4;36.814346;-119.74833;;336.63804808386834;;124.322586;;0 / 0;5131;2015-09-17 17:18:22:140
-0.1425;-0.0431;9.6857;-0.0024;-0.0012;0.0;-55.2;-3.7;107.5;36.814346;-119.74833;;336.63804808386834;;124.322586;;0 / 0;5233;2015-09-17 17:18:22:242
-0.1413;-0.0431;9.6606;0.0;0.0012;0.0;-55.1;-3.7;107.6;36.814346;-119.74833;;336.63804808386834;;124.322586;;0 / 0;5336;2015-09-17 17:18:22:345
-0.1401;-0.0443;9.6642;0.0024;0.0012;0.0012;-54.9;-3.7;107.5;36.814346;-119.74833;;336.63804808386834;;124.322586;;0 / 0;5437;2015-09-17 17:18:22:446
-0.1389;-0.0275;9.6558;0.0;0.0;-0.0012;-54.9;-3.7;107.6;36.814346;-119.74833;;336.63804808386834;;124.322586;;0 / 0;5539;2015-09-17 17:18:22:548
-0.0479;0.0718;9.7109;0.0;-0.0012;0.1344;-54.9;-3.7;107.8;36.814346;-119.74833;;336.63804808386834;;124.322586;;0 / 0;5642;2015-09-17 17:18:22:651
-0.1472;-0.0467;9.6977;0.0012;0.0024;0.0012;-54.9;-3.6;108.3;36.814346;-119.74833;;336.63804808386834;;124.322586;;0 / 0;5744;2015-09-17 17:18:22:753
-0.2538;-0.1544;9.6845;0.0012;0.0024;-0.0586;-54.8;-3.5;108.3;36.814346;-119.74833;;336.63804808386834;;124.322586;;0 / 0;5845;2015-09-17 17:18:22:854
-0.3172;-0.0251;8.9627;-0.0012;0.0024;-0.0024;-55.0;-3.5;108.1;36.814346;-119.74833;;336.63804808386834;;124.322586;;0 / 0;5947;2015-09-17 17:18:22:956
-0.3543;-0.0946;9.742;0.0012;-0.0024;-0.0073;-55.2;-3.6;107.7;36.814346;-119.74833;;336.63804808386834;;124.322586;;0 / 0;6049;2015-09-17 17:18:23:058
-0.2071;-0.0754;9.6953;-0.0452;0.0733;0.0428;-55.7;-4.0;107.4;36.814346;-119.74833;;336.63804808386834;;124.322586;;0 / 0;6151;2015-09-17 17:18:23:160
-0.1927;-0.1712;9.6977;-0.0611;-0.0147;-0.0831;-56.3;-4.2;107.9;36.814346;-119.74833;;336.63804808386834;;124.322586;;0 / 0;6253;2015-09-17 17:18:23:262
-0.1377;-0.1149;9.6019;-0.0586;0.0073;0.0305;-56.7;-4.4;108.3;36.814346;-119.74833;;336.63804808386834;;124.322586;;0 / 0;6356;2015-09-17 17:18:23:365
0.1556;-0.1856;9.4858;-0.1173;-0.1527;0.0183;-56.7;-5.0;108.9;36.814346;-119.74833;;336.63804808386834;;124.322586;;0 / 0;6457;2015-09-17 17:18:23:466
-0.158;-0.747;9.6642;-0.0855;-0.2468;0.0049;-55.7;-5.6;109.0;36.814346;-119.74833;;336.63804808386834;;124.322586;;0 / 0;6559;2015-09-17 17:18:23:568
0.1365;-0.3543;10.2903;-0.0965;0.0464;-0.1234;-52.0;-6.9;109.1;36.814346;-119.74833;;336.63804808386834;;124.322586;;0 / 0;6661;2015-09-17 17:18:23:670
0.1137;-0.0096;10.058;0.099;0.1417;-0.1417;-49.8;-8.4;104.1;36.814346;-119.74833;;336.63804808386834;;124.322586;;0 / 0;6764;2015-09-17 17:18:23:773
-0.3208;-0.0395;9.912;0.2162;0.0819;-0.0648;-47.2;-12.1;84.2;36.814346;-119.74833;;336.63804808386834;;124.322586;;0 / 0;6865;2015-09-17 17:18:23:874
-0.3136;0.1149;10.0114;0.1906;-0.0061;-0.0049;-47.6;-14.1;73.0;36.814346;-119.74833;;336.63804808386834;;124.322586;;0 / 0;6967;2015-09-17 17:18:23:976
-0.7123;0.504;10.4447;0.1148;0.0147;0.044;-47.9;-16.7;57.6;36.814346;-119.74833;;336.63804808386834;;124.322586;;0 / 0;7069;2015-09-17 17:18:24:078
-0.431;1.0965;9.4367;0.0892;0.044;0.2627;-47.6;-20.0;42.7;36.814346;-119.74833;;336.63804808386834;;124.322586;;0 / 0;7171;2015-09-17 17:18:24:180
-0.8404;0.8607;9.8294;0.1735;0.2053;0.5046;-48.0;-21.7;36.1;36.814346;-119.74833;;336.63804808386834;;124.322586;;0 / 0;7273;2015-09-17 17:18:24:282
-2.1548;0.7482;10.5129;0.0733;0.0611;0.5424;-47.5;-24.5;31.8;36.814346;-119.74833;;336.63804808386834;;124.322586;;0 / 0;7375;2015-09-17 17:18:24:384
-0.3029;0.2394;8.1343;0.4374;0.2285;0.661;-47.1;-25.3;26.8;36.814346;-119.74833;;336.63804808386834;;124.322586;;0 / 0;7477;2015-09-17 17:18:24:486
-1.1827;0.8033;9.8545;0.0757;0.3067;0.6622;-46.9;-25.9;27.3;36.814346;-119.74833;;336.63804808386834;;124.322586;;0 / 0;7580;2015-09-17 17:18:24:589
-1.0762;0.6716;8.8705;0.1686;0.0428;0.6048;-47.0;-26.7;25.5;36.814346;-119.74833;;336.63804808386834;;124.322586;;0 / 0;7681;2015-09-17 17:18:24:690
-2.1835;1.1384;8.4216;0.3335;0.2199;0.8968;-47.8;-27.0;23.7;36.814346;-119.74833;;336.63804808386834;;124.322586;;0 / 0;7783;2015-09-17 17:18:24:792
-0.8224;1.5874;8.3941;-0.0586;0.2248;1.058;-48.7;-26.6;22.9;36.814346;-119.74833;;336.63804808386834;;124.322586;;0 / 0;7885;2015-09-17 17:18:24:894
-1.4545;0.231;9.4272;0.5449;0.7624;1.1936;-50.6;-24.9;21.2;36.814346;-119.74833;;336.63804808386834;;124.322586;;0 / 0;7987;2015-09-17 17:18:24:996
-1.2139;1.3695;10.1885;-0.4459;0.441;1.4111;-52.0;-19.9;17.7;36.814346;-119.74833;;336.63804808386834;;124.322586;;0 / 0;8089;2015-09-17 17:18:25:098
-0.7697;0.9613;8.7269;-0.1051;0.3005;1.4832;-50.5;-16.5;15.1;36.814346;-119.74833;;336.63804808386834;;124.322586;;0 / 0;8191;2015-09-17 17:18:25:200
-0.82;0.9936;9.6965;-0.0049;-0.1356;1.2559;-47.1;-12.3;12.9;36.814346;-119.74833;;336.63804808386834;;124.322586;;0 / 0;8293;2015-09-17 17:18:25:302
-0.2394;1.2031;9.8857;-0.1979;0.1967;1.1387;-43.0;-9.9;9.6;36.814346;-119.74833;;336.63804808386834;;124.322586;;0 / 0;8395;2015-09-17 17:18:25:404
-0.3711;1.8663;9.8797;-0.4129;-0.3653;0.9102;-40.7;-9.2;9.0;36.814346;-119.74833;;336.63804808386834;;124.322586;;0 / 0;8497;2015-09-17 17:18:25:506
-0.5339;1.3396;9.8605;-0.27;-0.0195;1.0421;-38.1;-8.2;7.6;36.814346;-119.74833;;336.63804808386834;;124.322586;;0 / 0;8599;2015-09-17 17:18:25:608
-0.3651;1.227;10.1167;-0.3054;-0.0293;0.9346;-35.3;-7.9;6.6;36.814346;-119.74833;;336.63804808386834;;124.322586;;0 / 0;8701;2015-09-17 17:18:25:710
-0.6297;1.3659;9.7288;0.1112;-0.1002;0.9224;-31.1;-7.9;4.6;36.814346;-119.74833;;336.63804808386834;;124.322586;;0 / 0;8803;2015-09-17 17:18:25:812
-2.1632;1.4341;9.9623;0.1222;-0.1698;1.5589;-28.1;-8.9;3.4;36.814346;-119.74833;;336.63804808386834;;124.322586;;0 / 0;8905;2015-09-17 17:18:25:914
-1.3838;0.6213;10.0389;0.3348;-0.8173;2.116;-23.0;-13.1;-1.2;36.814346;-119.74833;;336.63804808386834;;124.322586;;0 / 0;9008;2015-09-17 17:18:26:017
-1.7717;0.0287;9.3194;1.2144;-0.0867;2.9871;-18.0;-23.4;-4.4;36.814346;-119.74833;;336.63804808386834;;124.322586;;0 / 0;9109;2015-09-17 17:18:26:118
-0.0024;-0.5171;10.2891;0.16;0.6426;2.8405;-17.2;-36.0;-6.2;36.814346;-119.74833;;336.63804808386834;;124.322586;;0 / 0;9211;2015-09-17 17:18:26:220
0.3627;0.0024;9.5349;0.9456;0.6561;2.5217;-18.8;-40.8;-5.3;36.814346;-119.74833;;336.63804808386834;;124.322586;;0 / 0;9313;2015-09-17 17:18:26:322
2.2853;0.2239;8.9064;0.3042;1.0727;2.3201;-21.6;-45.9;-2.0;36.814346;-119.74833;;336.63804808386834;;124.322586;;0 / 0;9416;2015-09-17 17:18:26:425
1.3527;0.5626;10.0437;0.3274;0.7721;1.6322;-22.5;-47.1;-1.0;36.814346;-119.74833;;336.63804808386834;;124.322586;;0 / 0;9517;2015-09-17 17:18:26:526
0.9361;1.075;10.0808;0.1539;0.7172;0.5168;-22.2;-48.1;-0.8;36.814346;-119.74833;;336.63804808386834;;124.322586;;0 / 0;9619;2015-09-17 17:18:26:628
-0.9637;1.0044;8.855;0.4093;0.5143;0.3995;-23.0;-49.6;0.6;36.814346;-119.74833;;336.63804808386834;;124.322586;;0 / 0;9721;2015-09-17 17:18:26:730
-1.3683;0.838;11.0576;-0.3457;0.6854;-0.0941;-22.8;-50.0;1.7;36.814346;-119.74833;;336.63804808386834;;124.322586;;0 / 0;9824;2015-09-17 17:18:26:833
-1.7765;0.2562;9.499;0.6109;-1.9829;0.0855;-22.0;-49.8;3.5;36.814346;-119.74833;;336.63804808386834;;124.322586;;0 / 0;9925;2015-09-17 17:18:26:934
1.1588;1.3575;7.5597;0.0208;-0.6597;0.4985;-22.1;-49.7;3.7;36.814346;-119.74833;;336.63804808386834;;124.322586;;0 / 0;10027;2015-09-17 17:18:27:036
-0.2909;1.4521;9.2081;-0.336;0.3445;0.6109;-23.1;-49.2;3.2;36.814346;-119.74833;;336.63804808386834;;124.322586;;0 / 0;10130;2015-09-17 17:18:27:139
0.0802;1.5778;9.6869;-0.5082;0.1747;0.0391;-24.7;-48.9;2.3;36.814346;-119.74833;;336.63804808386834;;124.322586;;0 / 0;10231;2015-09-17 17:18:27:240
1.1049;0.4082;10.5788;0.1723;0.1588;-0.0709;-25.3;-48.5;2.4;36.814346;-119.74833;;336.63804808386834;;124.322586;;0 / 0;10333;2015-09-17 17:18:27:342
0.3639;1.2306;11.2049;0.5119;-0.6206;-0.2101;-25.9;-48.1;2.7;36.814346;-119.74833;;336.63804808386834;;124.322586;;0 / 0;10436;2015-09-17 17:18:27:445
2.6276;-0.3089;10.1921;0.81;0.3457;0.3653;-26.2;-48.0;3.0;36.814346;-119.74833;;336.63804808386834;;124.322586;;0 / 0;10537;2015-09-17 17:18:27:546
-0.5986;2.314;9.4332;-0.0305;-0.3824;-0.8112;-26.5;-48.5;3.5;36.814346;-119.74833;;336.63804808386834;;124.322586;;0 / 0;10639;2015-09-17 17:18:27:648
1.2965;1.5203;8.2085;-0.3653;-0.3738;0.1857;-26.8;-48.6;3.6;36.814346;-119.74833;;336.63804808386834;;124.322586;;0 / 0;10741;2015-09-17 17:18:27:750
-0.9242;2.1608;10.3968;0.0855;0.9126;-0.2517;-27.1;-48.1;3.2;36.814346;-119.74833;;336.63804808386834;;124.322586;;0 / 0;10843;2015-09-17 17:18:27:852
-0.6907;3.1017;8.3043;-0.1332;0.5705;0.2236;-27.1;-47.6;3.2;36.814346;-119.74833;;336.63804808386834;;124.322586;;0 / 0;10945;2015-09-17 17:18:27:954
-1.0175;2.2781;10.9128;-0.595;-0.3873;0.0623;-26.6;-47.3;3.4;36.814346;-119.74833;;336.63804808386834;;124.322586;;0 / 0;11047;2015-09-17 17:18:28:056
-1.3743;2.569;8.9136;0.0037;0.1478;0.1405;-26.4;-47.3;3.9;36.814346;-119.74833;;336.63804808386834;;124.322586;;0 / 0;11149;2015-09-17 17:18:28:158
-0.7865;0.6153;12.8341;-0.0403;0.4618;0.0684;-26.9;-47.2;3.6;36.814346;-119.74833;;336.63804808386834;;124.322586;;0 / 0;11252;2015-09-17 17:18:28:261
-1.2366;1.3862;8.8741;0.2004;-0.0709;-0.0782;-27.5;-47.1;2.6;36.814346;-119.74833;;336.63804808386834;;124.322586;;0 / 0;11353;2015-09-17 17:18:28:362
-0.2083;0.8954;10.6865;-0.0489;0.4667;0.3995;-27.6;-47.2;1.7;36.814346;-119.74833;;336.63804808386834;;124.322586;;0 / 0;11456;2015-09-17 17:18:28:465
-0.2945;2.2051;7.8865;0.1747;-0.0574;0.0;-27.5;-47.8;0.3;36.814346;-119.74833;;336.63804808386834;;124.322586;;0 / 0;11557;2015-09-17 17:18:28:566
-0.5207;2.5462;8.5677;-0.0134;0.3421;0.1454;-27.5;-48.5;-0.3;36.814346;-119.74833;;336.63804808386834;;124.322586;;0 / 0;11662;2015-09-17 17:18:28:671
-2.229;2.1452;10.173;-0.1478;0.6683;0.3225;-27.2;-49.4;-1.4;36.814346;-119.74833;;336.63804808386834;;124.322586;;0 / 0;11761;2015-09-17 17:18:28:770
-2.4708;1.0427;10.9259;-0.7049;0.0061;0.6585;-26.8;-50.0;-1.8;36.814346;-119.74833;;336.63804808386834;;124.322586;;0 / 0;11863;2015-09-17 17:18:28:872
-1.8292;1.6173;8.6874;0.0843;-0.5009;0.0611;-26.7;-51.0;-3.4;36.814346;-119.74833;;336.63804808386834;;124.322586;;0 / 0;11965;2015-09-17 17:18:28:974
-1.6771;2.5295;9.6379;-0.0819;-0.5217;0.1625;-27.1;-51.9;-4.5;36.814346;-119.74833;;336.63804808386834;;124.322586;;0 / 0;12067;2015-09-17 17:18:29:076
0.6321;2.4349;8.0206;-0.0611;-0.5718;0.1307;-28.7;-53.0;-6.1;36.814346;-119.74833;;336.63804808386834;;124.322586;;0 / 0;12169;2015-09-17 17:18:29:178
0.7314;1.4784;10.9894;-0.2993;0.0147;-0.3946;-30.9;-54.2;-7.9;36.814346;-119.74833;;336.63804808386834;;124.322586;;0 / 0;12272;2015-09-17 17:18:29:281
0.4573;1.8759;9.9539;0.0195;-0.0415;-0.6475;-32.0;-54.8;-10.3;36.814346;-119.74833;;336.63804808386834;;124.322586;;0 / 0;12373;2015-09-17 17:18:29:382
0.3041;0.3615;13.86;-0.5156;0.066;-0.7159;-31.8;-55.1;-12.3;36.814346;-119.74833;;336.63804808386834;;124.322586;;0 / 0;12475;2015-09-17 17:18:29:484
0.6668;0.8631;7.4376;0.3555;-0.4569;-0.7563;-30.8;-55.2;-13.5;36.814346;-119.74833;;336.63804808386834;;124.322586;;0 / 0;12577;2015-09-17 17:18:29:586
0.5183;0.5902;10.6159;-0.0709;0.4337;0.0293;-29.2;-56.0;-15.0;36.814346;-119.74833;;336.63804808386834;;124.322586;;0 / 0;12679;2015-09-17 17:18:29:688
0.2957;0.9685;8.4515;0.1368;-0.2089;-0.0819;-28.0;-56.7;-15.7;36.814346;-119.74833;;336.63804808386834;;124.322586;;0 / 0;12781;2015-09-17 17:18:29:790
0.0958;1.7011;8.734;0.11;0.1222;-0.1332;-27.0;-58.3;-16.8;36.814346;-119.74833;;336.63804808386834;;124.322586;;0 / 0;12883;2015-09-17 17:18:29:892
-0.6716;1.6939;10.4267;0.1442;-0.0745;-0.0794;-26.4;-59.5;-17.2;36.814346;-119.74833;;336.63804808386834;;124.322586;;0 / 0;12986;2015-09-17 17:18:29:995
-0.4022;0.4609;11.2743;-0.1344;-0.2798;-0.0159;-26.3;-61.3;-18.0;36.814346;-119.74833;;336.63804808386834;;124.322586;;0 / 0;13088;2015-09-17 17:18:30:097
0.4154;0.2298;10.9271;0.0183;0.4032;-0.5669;-26.4;-62.2;-18.8;36.814346;-119.74833;;336.63804808386834;;124.322586;;0 / 0;13190;2015-09-17 17:18:30:199
-3.122;1.1815;9.8581;0.0684;0.1295;0.2358;-26.0;-63.6;-19.7;36.814346;-119.74833;;336.63804808386834;;124.322586;;0 / 0;13291;2015-09-17 17:18:30:300
0.5016;-0.3795;10.556;-1.3292;-1.3146;-0.2505;-25.8;-65.0;-20.3;36.814346;-119.74833;;336.63804808386834;;124.322586;;0 / 0;13393;2015-09-17 17:18:30:402
0.4992;0.4477;8.9459;0.2822;-0.5266;-0.0086;-27.6;-65.6;-21.5;36.814346;-119.74833;;336.63804808386834;;124.322586;;0 / 0;13496;2015-09-17 17:18:30:505
-2.2003;0.2574;12.5061;0.7611;0.0929;-0.2199;-29.7;-66.5;-22.4;36.814346;-119.74833;;336.63804808386834;;124.322586;;0 / 0;13597;2015-09-17 17:18:30:606
-0.6752;1.1049;12.3756;0.9737;0.6072;0.6267;-30.9;-69.2;-21.3;36.814346;-119.74833;;336.63804808386834;;124.322586;;0 / 0;13699;2015-09-17 17:18:30:708
-0.3029;-0.0096;11.2719;0.3335;0.9065;0.8687;-32.6;-76.6;-14.4;36.814346;-119.74833;;336.63804808386834;;124.322586;;0 / 0;13801;2015-09-17 17:18:30:810
-2.053;0.3029;4.6627;0.4655;1.3671;2.105;-36.2;-80.5;-10.7;36.814346;-119.74833;;336.63804808386834;;124.322586;;0 / 0;13904;2015-09-17 17:18:30:913
1.6807;-1.5969;8.7987;-0.551;-0.9114;-0.6439;-41.6;-78.2;-13.3;36.814346;-119.74833;;336.63804808386834;;124.322586;;0 / 0;14005;2015-09-17 17:18:31:014
-0.0706;-0.65;9.1602;-0.4948;-0.1307;0.573;-44.4;-76.7;-13.0;36.814346;-119.74833;;336.63804808386834;;124.322586;;0 / 0;14107;2015-09-17 17:18:31:116
0.9912;0.6285;7.3622;1.0568;-0.7294;-0.3836;-46.0;-77.7;-10.2;36.814346;-119.74833;;336.63804808386834;;124.322586;;0 / 0;14209;2015-09-17 17:18:31:218
-1.0463;2.3906;8.2013;0.0953;-0.022;-0.2517;-45.5;-79.4;-6.5;36.814346;-119.74833;;336.63804808386834;;124.322586;;0 / 0;14311;2015-09-17 17:18:31:320
-2.3786;1.0092;8.5401;0.0244;-0.2309;-0.6829;-45.1;-79.7;-3.6;36.814346;-119.74833;;336.63804808386834;;124.322586;;0 / 0;14414;2015-09-17 17:18:31:423
-1.2426;2.0494;9.3877;0.4862;-0.3995;-0.4484;-44.7;-80.4;-2.8;36.814346;-119.74833;;336.63804808386834;;124.322586;;0 / 0;14515;2015-09-17 17:18:31:524
-1.3408;2.648;8.1104;0.0244;0.0049;-0.0086;-43.0;-81.3;0.1;36.814346;-119.74833;;336.63804808386834;;124.322586;;0 / 0;14617;2015-09-17 17:18:31:626
0.3448;2.3463;7.5453;0.2737;0.1478;-0.5058;-42.3;-81.8;1.8;36.814346;-119.74833;;336.63804808386834;;124.322586;;0 / 0;14719;2015-09-17 17:18:31:728
-0.6009;3.9217;9.1686;-0.0159;0.1662;-0.2407;-41.1;-82.7;4.5;36.814346;-119.74833;;336.63804808386834;;124.322586;;0 / 0;14821;2015-09-17 17:18:31:830
-0.8643;3.316;8.2301;0.27;0.2602;-0.5681;-40.4;-83.1;5.7;36.814346;-119.74833;;336.63804808386834;;124.322586;;0 / 0;14923;2015-09-17 17:18:31:932
-1.883;1.9848;9.5014;-0.1796;0.0061;-0.518;-38.6;-83.4;7.4;36.814346;-119.74833;;336.63804808386834;;124.322586;;0 / 0;15025;2015-09-17 17:18:32:034
-1.3515;1.5754;7.7692;-0.2053;0.1381;-0.0354;-37.5;-83.5;8.1;36.814346;-119.74833;;336.63804808386834;;124.322586;;0 / 0;15128;2015-09-17 17:18:32:137
-2.302;0.6201;8.351;-0.4838;-0.1796;-0.6475;-36.3;-83.1;7.8;36.814346;-119.74833;;336.63804808386834;;124.322586;;0 / 0;15229;2015-09-17 17:18:32:238
-2.2039;0.8847;8.4623;-0.2847;0.3482;0.226;-35.7;-82.8;6.8;36.814346;-119.74833;;336.63804808386834;;124.322586;;0 / 0;15331;2015-09-17 17:18:32:340
-0.82;0.7039;8.7592;-0.5424;0.3604;0.3213;-35.6;-82.2;5.1;36.814346;-119.74833;;336.63804808386834;;124.322586;;0 / 0;15433;2015-09-17 17:18:32:442
-0.4369;-0.2298;7.1503;-0.2334;0.3274;0.2871;-36.6;-81.5;3.9;36.814346;-119.74833;;336.63804808386834;;124.322586;;0 / 0;15535;2015-09-17 17:18:32:544
-0.7997;-1.8459;11.1749;-1.2706;-0.628;-0.4142;-38.0;-80.9;2.7;36.814346;-119.74833;;336.63804808386834;;124.322586;;0 / 0;15637;2015-09-17 17:18:32:646
-0.5662;-1.4401;13.9283;-0.2737;-0.1381;0.022;-39.5;-79.3;0.5;36.814346;-119.74833;;336.63804808386834;;124.322586;;0 / 0;15739;2015-09-17 17:18:32:748
-3.1687;-0.4788;10.5369;0.4215;0.2162;-0.2578;-39.9;-78.0;-1.1;36.814346;-119.74833;;336.63804808386834;;124.322586;;0 / 0;15841;2015-09-17 17:18:32:850
-1.4162;-0.182;10.7332;0.0794;-0.6145;-0.1026;-40.0;-76.6;-2.2;36.814346;-119.74833;;336.63804808386834;;124.322586;;0 / 0;15944;2015-09-17 17:18:32:953
-1.4389;0.4345;9.7983;0.4362;0.3971;-0.0525;-40.1;-76.3;-2.4;36.814346;-119.74833;;336.63804808386834;;124.322586;;0 / 0;16045;2015-09-17 17:18:33:054
-1.7968;0.5195;11.06;0.0122;0.4019;-0.0648;-40.1;-76.5;-1.5;36.814346;-119.74833;;336.63804808386834;;124.322586;;0 / 0;16148;2015-09-17 17:18:33:157
-2.0674;0.4585;10.3489;0.3067;0.1075;-0.5302;-39.8;-76.6;-1.0;36.814346;-119.74833;;336.63804808386834;;124.322586;;0 / 0;16249;2015-09-17 17:18:33:258
-1.9573;-0.2526;11.4598;-0.0623;-0.1051;-0.2065;-38.3;-76.8;0.2;36.814346;-119.74833;;336.63804808386834;;124.322586;;0 / 0;16351;2015-09-17 17:18:33:360
-1.3455;-0.0024;9.1243;0.551;0.1417;-0.5791;-36.8;-77.3;0.2;36.814346;-119.74833;;336.63804808386834;;124.322586;;0 / 0;16453;2015-09-17 17:18:33:462
-3.3591;-0.0431;8.6227;0.2089;0.3946;-0.5034;-35.6;-77.8;0.2;36.814346;-119.74833;;336.63804808386834;;124.322586;;0 / 0;16555;2015-09-17 17:18:33:564
-1.8232;0.1077;8.5186;0.2224;-0.1833;-0.1173;-34.3;-78.8;0.1;36.814346;-119.74833;;336.63804808386834;;124.322586;;0 / 0;16657;2015-09-17 17:18:33:666
-1.5754;0.34;8.3031;-0.0745;0.1405;0.1613;-33.6;-79.4;0.7;36.814346;-119.74833;;336.63804808386834;;124.322586;;0 / 0;16760;2015-09-17 17:18:33:769
-2.1177;-0.4465;9.4739;-0.1185;0.2321;0.43;-33.9;-80.3;0.7;36.814346;-119.74833;;336.63804808386834;;124.322586;;0 / 0;16862;2015-09-17 17:18:33:871
-0.6907;0.1293;9.3374;-0.0024;-0.5082;0.4899;-35.6;-80.8;0.4;36.814346;-119.74833;;336.63804808386834;;124.322586;;0 / 0;16963;2015-09-17 17:18:33:972
-0.7721;-0.0431;10.0712;-0.4887;0.0843;0.1991;-37.6;-81.1;-0.5;36.814346;-119.74833;;336.63804808386834;;124.322586;;0 / 0;17065;2015-09-17 17:18:34:074
-2.5307;-0.3136;8.2109;0.2505;0.1112;-0.0012;-40.6;-81.3;-1.5;36.814346;-119.74833;;336.63804808386834;;124.322586;;0 / 0;17167;2015-09-17 17:18:34:176
-1.634;-0.4429;9.232;-0.099;-0.3897;0.3262;-42.1;-81.7;-1.5;36.814346;-119.74833;;336.63804808386834;;124.322586;;0 / 0;17270;2015-09-17 17:18:34:279
-1.1145;0.4585;8.7628;0.0562;-0.1991;0.0134;-43.8;-82.1;-0.7;36.814346;-119.74833;;336.63804808386834;;124.322586;;0 / 0;17371;2015-09-17 17:18:34:380
-1.0487;0.3783;9.7181;-0.1881;-0.1723;-0.0024;-45.4;-82.6;0.6;36.814346;-119.74833;;336.63804808386834;;124.322586;;0 / 0;17473;2015-09-17 17:18:34:482
-1.652;0.5938;9.3482;0.0244;-0.1588;-0.1442;-46.3;-82.8;1.0;36.814346;-119.74833;;336.63804808386834;;124.322586;;0 / 0;17575;2015-09-17 17:18:34:584
-0.923;0.5016;10.076;-0.0232;-0.0391;-0.0159;-47.0;-83.3;1.9;36.814346;-119.74833;;336.63804808386834;;124.322586;;0 / 0;17677;2015-09-17 17:18:34:686
-1.1815;0.7817;8.9483;-0.1344;-0.2199;-0.1637;-47.3;-83.7;2.3;36.814346;-119.74833;;336.63804808386834;;124.322586;;0 / 0;17780;2015-09-17 17:18:34:789
1.1468;-1.2426;14.4897;-0.6011;0.0904;0.226;-47.6;-84.3;2.7;36.814346;-119.74833;;336.63804808386834;;124.322586;;0 / 0;17881;2015-09-17 17:18:34:890
-0.9756;-0.3903;8.1128;0.7233;-0.0086;-0.5718;-47.8;-84.6;3.3;36.814346;-119.74833;;336.63804808386834;;124.322586;;0 / 0;17983;2015-09-17 17:18:34:992
-0.99;-1.1097;10.1634;-0.3189;0.391;0.325;-47.2;-85.2;5.1;36.814346;-119.74833;;336.63804808386834;;124.322586;;0 / 0;18085;2015-09-17 17:18:35:094
-0.5423;-0.2382;9.7839;0.1454;-0.2138;0.1454;-47.0;-85.2;6.2;36.814346;-119.74833;;336.63804808386834;;124.322586;;0 / 0;18187;2015-09-17 17:18:35:196
-1.8244;0.6093;8.9172;-0.0147;0.1063;0.3824;-47.0;-85.0;7.8;36.814346;-119.74833;;336.63804808386834;;124.322586;;0 / 0;18289;2015-09-17 17:18:35:298
-0.3867;0.5291;9.2715;-0.0794;-0.0379;0.832;-48.9;-84.0;8.4;36.814346;-119.74833;;336.63804808386834;;124.322586;;0 / 0;18392;2015-09-17 17:18:35:401
0.5195;0.5962;10.1382;-0.1246;0.2786;0.6267;-52.0;-82.2;8.5;36.814346;-119.74833;;336.63804808386834;;124.322586;;0 / 0;18493;2015-09-17 17:18:35:502
-0.8499;0.2418;10.5225;-0.0281;0.4129;0.54;-55.9;-80.0;8.8;36.814346;-119.74833;;336.63804808386834;;124.322586;;0 / 0;18596;2015-09-17 17:18:35:605
-1.227;0.0838;10.556;0.0318;0.1747;0.5547;-57.1;-79.3;8.2;36.814346;-119.74833;;336.63804808386834;;124.322586;;0 / 0;18697;2015-09-17 17:18:35:706
-3.0885;-0.0922;6.8007;0.215;-0.0855;0.7025;-59.5;-76.9;8.4;36.814346;-119.74833;;336.63804808386834;;124.322586;;0 / 0;18799;2015-09-17 17:18:35:808
-0.2921;-0.4884;10.7188;-0.3702;-0.2505;0.8735;-61.1;-75.3;8.7;36.814346;-119.74833;;336.63804808386834;;124.322586;;0 / 0;18901;2015-09-17 17:18:35:910
-1.9154;1.1959;7.8757;0.0476;0.1283;0.2883;-63.5;-72.9;9.0;36.814346;-119.74833;;336.63804808386834;;124.322586;;0 / 0;19004;2015-09-17 17:18:36:013
-1.3084;0.8416;10.1059;-0.2016;-0.0648;0.4496;-65.0;-71.4;9.0;36.814346;-119.74833;;336.63804808386834;;124.322586;;0 / 0;19106;2015-09-17 17:18:36:115
-0.8452;0.7506;10.2663;-0.0086;-0.1429;0.3311;-66.9;-69.2;9.3;36.814346;-119.74833;;336.63804808386834;;124.322586;;0 / 0;19207;2015-09-17 17:18:36:216
-1.4234;0.3436;9.3889;0.237;-0.3372;0.2688;-67.7;-68.0;9.4;36.814346;-119.74833;;336.63804808386834;;124.322586;;0 / 0;19309;2015-09-17 17:18:36:318
-0.7446;-0.2801;12.3433;-0.0293;-0.452;0.5266;-69.2;-66.1;9.9;36.814346;-119.74833;;336.63804808386834;;124.322586;;0 / 0;19411;2015-09-17 17:18:36:420
-1.1983;-0.3065;9.5636;0.2443;0.1784;0.3384;-70.7;-64.2;9.8;36.814346;-119.74833;;336.63804808386834;;124.322586;;0 / 0;19513;2015-09-17 17:18:36:522
-2.9173;-0.8068;9.9874;0.0855;0.3567;0.5986;-71.8;-62.9;9.5;36.814346;-119.74833;;336.63804808386834;;124.322586;;0 / 0;19615;2015-09-17 17:18:36:624
-1.3659;-0.3412;8.8837;0.1307;-0.0342;1.2706;-73.7;-60.2;8.7;36.814346;-119.74833;;336.63804808386834;;124.322586;;0 / 0;19717;2015-09-17 17:18:36:726
-1.0822;-0.31;9.1949;-0.0476;0.1918;1.4917;-76.6;-54.7;6.2;36.814346;-119.74833;;336.63804808386834;;124.322586;;0 / 0;19819;2015-09-17 17:18:36:828
0.0096;-0.0311;9.1375;-0.0513;0.1112;1.6286;-79.9;-45.9;4.0;36.814346;-119.74833;;336.63804808386834;;124.322586;;0 / 0;19921;2015-09-17 17:18:36:930
0.1006;0.1927;9.3589;-0.16;0.3543;1.5736;-80.6;-39.9;2.8;36.814346;-119.74833;;336.63804808386834;;124.322586;;0 / 0;20023;2015-09-17 17:18:37:032
0.0251;0.1006;9.7707;-0.2944;0.3067;1.4404;-81.4;-30.5;2.3;36.814346;-119.74833;;336.63804808386834;;124.322586;;0 / 0;20126;2015-09-17 17:18:37:135
0.668;-0.0431;11.3916;-0.4753;0.2505;1.4258;-79.8;-24.9;0.0;36.814346;-119.74833;;336.63804808386834;;124.322586;;0 / 0;20227;2015-09-17 17:18:37:236
-1.4688;0.6237;9.4044;0.1894;0.2309;0.6842;-78.7;-20.2;-0.1;36.814346;-119.74833;;336.63804808386834;;124.322586;;0 / 0;20329;2015-09-17 17:18:37:338
-1.0475;0.164;10.6506;-0.1943;-0.1197;0.9175;-77.7;-18.1;-0.6;36.814346;-119.74833;;336.63804808386834;;124.322586;;0 / 0;20431;2015-09-17 17:18:37:440
-1.8543;1.312;8.509;0.1124;-0.1185;0.7098;-77.1;-16.6;-1.1;36.814346;-119.74833;;336.63804808386834;;124.322586;;0 / 0;20533;2015-09-17 17:18:37:542
-0.2837;1.3192;9.0633;-0.2309;-0.1417;0.8296;-75.3;-12.7;-1.7;36.814346;-119.74833;;336.63804808386834;;124.322586;;0 / 0;20636;2015-09-17 17:18:37:645
-0.0658;1.4461;9.8438;-0.1833;0.0513;0.4044;-74.2;-10.3;-1.7;36.814346;-119.74833;;336.63804808386834;;124.322586;;0 / 0;20737;2015-09-17 17:18:37:746
-0.7566;0.8284;10.7129;0.0281;-0.088;0.2431;-72.9;-7.1;-1.8;36.814346;-119.74833;;336.63804808386834;;124.322586;;0 / 0;20839;2015-09-17 17:18:37:848
-1.0355;-0.0431;9.9012;-0.1295;-0.2248;0.3604;-72.1;-5.6;-1.8;36.814346;-119.74833;;336.63804808386834;;124.322586;;0 / 0;20941;2015-09-17 17:18:37:950
0.6476;0.0144;10.1682;0.2798;-0.2639;-0.022;-71.2;-3.5;-1.8;36.814346;-119.74833;;336.63804808386834;;124.322586;;0 / 0;21043;2015-09-17 17:18:38:052
-1.8112;-0.1053;8.5928;0.3995;0.1442;0.0672;-71.0;-3.0;-2.0;36.814346;-119.74833;;336.63804808386834;;124.322586;;0 / 0;21145;2015-09-17 17:18:38:154
-0.8751;-0.5148;9.8665;0.0648;0.0379;0.551;-70.9;-2.7;-2.7;36.814346;-119.74833;;336.63804808386834;;124.322586;;0 / 0;21247;2015-09-17 17:18:38:256
-0.3077;-0.2274;9.0249;-0.0171;-0.0244;0.8858;-70.5;-2.5;-3.5;36.814346;-119.74833;;336.63804808386834;;124.322586;;0 / 0;21349;2015-09-17 17:18:38:358
-0.5602;0.1796;9.7659;-0.1368;0.2321;0.8467;-68.1;-0.6;-4.9;36.814346;-119.74833;;336.63804808386834;;124.322586;;0 / 0;21451;2015-09-17 17:18:38:460
0.4417;1.0666;10.477;-0.2016;0.3836;0.8393;-62.7;3.3;-5.8;36.814346;-119.74833;;336.63804808386834;;124.322586;;0 / 0;21553;2015-09-17 17:18:38:562
0.2083;1.3719;9.5648;-0.0159;0.3274;0.6451;-58.7;6.0;-6.0;36.814346;-119.74833;;336.63804808386834;;124.322586;;0 / 0;21655;2015-09-17 17:18:38:664
-0.3603;1.1325;9.7935;0.1674;0.1503;0.5278;-56.5;6.8;-6.9;36.814346;-119.74833;;336.63804808386834;;124.322586;;0 / 0;21758;2015-09-17 17:18:38:767
1.549;-0.5638;12.2116;-0.6414;-0.8198;0.7318;-54.2;7.6;-7.0;36.814346;-119.74833;;336.63804808386834;;124.322586;;0 / 0;21860;2015-09-17 17:18:38:869
-0.5638;0.7434;8.1475;0.6316;0.1576;-0.1955;-51.4;9.1;-7.2;36.814346;-119.74833;;336.63804808386834;;124.322586;;0 / 0;21961;2015-09-17 17:18:38:970
0.8332;0.6835;8.3306;-0.2639;-0.204;0.2847;-50.3;9.6;-7.6;36.814346;-119.74833;;336.63804808386834;;124.322586;;0 / 0;22063;2015-09-17 17:18:39:072
0.4741;1.1708;9.1111;0.2676;-0.2834;-0.4081;-49.7;10.0;-7.9;36.814346;-119.74833;;336.63804808386834;;124.322586;;0 / 0;22166;2015-09-17 17:18:39:175
-0.2801;1.1648;8.0732;-0.3396;-0.595;-0.4374;-50.4;9.7;-8.5;36.814346;-119.74833;;336.63804808386834;;124.322586;;0 / 0;22267;2015-09-17 17:18:39:276
0.1496;0.401;10.2807;-0.3115;0.3115;-0.3115;-52.3;10.4;-7.3;36.814346;-119.74833;;336.63804808386834;;124.322586;;0 / 0;22369;2015-09-17 17:18:39:378
-0.8679;0.1891;10.8745;0.2981;0.226;-0.3042;-54.4;11.0;-6.4;36.814346;-119.74833;;336.63804808386834;;124.322586;;0 / 0;22472;2015-09-17 17:18:39:481
0.0515;-0.6237;9.2296;-0.4777;-0.4227;0.0489;-56.8;11.4;-6.3;36.814346;-119.74833;;336.63804808386834;;124.322586;;0 / 0;22573;2015-09-17 17:18:39:582
1.7753;-1.1803;11.3749;-0.4667;-0.0904;0.1002;-58.1;11.6;-6.3;36.814346;-119.74833;;336.63804808386834;;124.322586;;0 / 0;22676;2015-09-17 17:18:39:685
-0.5375;-0.2622;9.5505;0.4496;0.3225;-0.3531;-60.2;11.8;-6.5;36.814346;-119.74833;;336.63804808386834;;124.322586;;0 / 0;22778;2015-09-17 17:18:39:787
-0.5758;-0.3292;9.2835;0.1075;0.4032;0.1344;-62.5;11.7;-7.0;36.814346;-119.74833;;336.63804808386834;;124.322586;;0 / 0;22879;2015-09-17 17:18:39:888
0.1281;-0.4561;10.2352;-0.044;0.4484;0.3286;-63.4;11.4;-8.5;36.814346;-119.74833;;336.63804808386834;;124.322586;;0 / 0;22982;2015-09-17 17:18:39:991
0.0455;0.5519;8.9088;0.3213;-0.0611;0.0257;-63.6;11.0;-11.1;36.814346;-119.74833;;336.63804808386834;;124.322586;;0 / 0;23083;2015-09-17 17:18:40:092
0.0682;1.0738;8.7879;-0.0684;0.1466;0.1918;-63.5;11.0;-12.7;36.814346;-119.74833;;336.63804808386834;;124.322586;;0 / 0;23186;2015-09-17 17:18:40:195
-0.0862;0.7326;10.4842;0.044;0.4081;0.0794;-64.0;11.2;-14.2;36.814346;-119.74833;;336.63804808386834;;124.322586;;0 / 0;23287;2015-09-17 17:18:40:296
-0.8056;1.0534;10.6099;0.0159;0.5143;0.1539;-64.3;11.4;-15.6;36.814346;-119.74833;;336.63804808386834;;124.322586;;0 / 0;23389;2015-09-17 17:18:40:398
0.0599;0.425;9.2608;0.5547;-1.2291;-0.3457;-64.5;11.9;-17.4;36.814346;-119.74833;;336.63804808386834;;124.322586;;0 / 0;23491;2015-09-17 17:18:40:500
-0.8236;0.6464;7.8853;-1.2107;0.2114;0.2334;-68.3;10.6;-19.4;36.814346;-119.74833;;336.63804808386834;;124.322586;;0 / 0;23593;2015-09-17 17:18:40:602
0.9038;-0.3472;12.6941;-1.2462;-0.7807;0.0635;-71.8;13.0;-14.7;36.814346;-119.74833;;336.63804808386834;;124.322586;;0 / 0;23695;2015-09-17 17:18:40:704
1.2833;2.9664;9.1722;0.5681;0.2101;-0.0342;-74.7;11.6;-13.0;36.814346;-119.74833;;336.63804808386834;;124.322586;;0 / 0;23797;2015-09-17 17:18:40:806
0.0048;1.5419;7.8386;-0.6182;-0.4667;-0.1234;-75.3;11.9;-13.0;36.814346;-119.74833;;336.63804808386834;;124.322586;;0 / 0;23899;2015-09-17 17:18:40:908
0.5219;0.6919;11.0624;-0.4386;-0.1197;0.0525;-78.3;11.4;-11.8;36.814346;-119.74833;;336.63804808386834;;124.322586;;0 / 0;24001;2015-09-17 17:18:41:010
2.4134;0.7482;11.2587;0.2236;0.3189;-0.1148;-80.1;11.0;-12.1;36.814346;-119.74833;;336.63804808386834;;124.322586;;0 / 0;24103;2015-09-17 17:18:41:112
-0.5339;0.2274;9.5469;0.4362;0.6353;0.0977;-83.5;7.5;-15.0;36.814346;-119.74833;;336.63804808386834;;124.322586;;0 / 0;24205;2015-09-17 17:18:41:214
0.1796;0.1173;7.8913;0.4826;0.2162;-0.0367;-84.3;3.9;-19.4;36.814346;-119.74833;;336.63804808386834;;124.322586;;0 / 0;24307;2015-09-17 17:18:41:316
-1.1061;0.3424;8.8119;0.0122;-0.3885;-0.8027;-86.4;-2.3;-19.4;36.814346;-119.74833;;336.63804808386834;;124.322586;;0 / 0;24409;2015-09-17 17:18:41:418
-1.3527;-0.3448;10.7476;-0.7465;0.3824;0.5107;-86.9;-2.3;-21.2;36.814346;-119.74833;;336.63804808386834;;124.322586;;0 / 0;24511;2015-09-17 17:18:41:520
-0.8631;0.1508;9.4966;-0.204;-0.5534;0.7538;-87.4;-3.2;-20.6;36.814346;-119.74833;;336.63804808386834;;124.322586;;0 / 0;24613;2015-09-17 17:18:41:622
0.9325;0.2382;9.3829;0.1234;-0.2786;0.992;-89.2;-1.3;-19.8;36.814346;-119.74833;;336.63804808386834;;124.322586;;0 / 0;24715;2015-09-17 17:18:41:724
0.6919;0.7195;9.924;0.0159;0.4985;1.0971;-89.5;0.4;-20.0;36.814346;-119.74833;;336.63804808386834;;124.322586;;0 / 0;24818;2015-09-17 17:18:41:827
0.9864;0.4262;11.4898;0.0513;0.4789;1.1961;-87.5;5.4;-27.1;36.814346;-119.74833;;336.63804808386834;;124.322586;;0 / 0;24921;2015-09-17 17:18:41:930
1.7825;0.9972;9.5193;0.3555;-0.0831;0.9481;-84.9;6.1;-31.4;36.814346;-119.74833;;336.63804808386834;;124.322586;;0 / 0;25021;2015-09-17 17:18:42:030
2.0051;0.6812;8.989;-0.1454;-0.1478;0.8882;-81.8;5.5;-32.6;36.814346;-119.74833;;336.63804808386834;;124.322586;;0 / 0;25123;2015-09-17 17:18:42:132
1.4353;-0.3124;12.2368;0.0757;-0.0709;-0.1124;-77.7;6.1;-30.7;36.814346;-119.74833;;336.63804808386834;;124.322586;;0 / 0;25225;2015-09-17 17:18:42:234
-0.6452;-0.1065;9.5589;0.0672;-0.4838;-0.2553;-72.5;3.1;-25.9;36.814346;-119.74833;;336.63804808386834;;124.322586;;0 / 0;25327;2015-09-17 17:18:42:336
-0.5626;0.9852;8.5377;0.3262;-0.452;-0.5852;-69.9;1.2;-23.1;36.814346;-119.74833;;336.63804808386834;;124.322586;;0 / 0;25429;2015-09-17 17:18:42:438
-0.6835;1.0762;8.1403;-0.4508;0.9065;-0.1454;-67.7;-1.5;-23.5;36.814346;-119.74833;;336.63804808386834;;124.322586;;0 / 0;25531;2015-09-17 17:18:42:540
-1.0187;0.8416;11.1007;-0.248;-0.1271;-0.6781;-65.4;-2.3;-21.1;36.814346;-119.74833;;336.63804808386834;;124.322586;;0 / 0;25633;2015-09-17 17:18:42:642
-1.834;0.9206;10.8086;0.2737;-0.0293;-0.3751;-64.4;-3.5;-20.9;36.814346;-119.74833;;336.63804808386834;;124.322586;;0 / 0;25735;2015-09-17 17:18:42:744
-0.1197;0.8607;9.5074;0.4007;-0.463;-0.0208;-62.1;-5.0;-19.4;36.814346;-119.74833;;336.63804808386834;;124.322586;;0 / 0;25837;2015-09-17 17:18:42:846
-0.6656;0.5171;7.7704;0.4618;-0.7159;-0.3225;-61.2;-6.8;-18.6;36.814346;-119.74833;;336.63804808386834;;124.322586;;0 / 0;25939;2015-09-17 17:18:42:948
1.0511;-0.8212;11.1402;-0.8198;0.9297;0.2456;-59.2;-9.1;-18.2;36.814346;-119.74833;;336.63804808386834;;124.322586;;0 / 0;26041;2015-09-17 17:18:43:050
-2.1715;0.0275;8.0026;0.6658;0.077;-0.0794;-57.7;-10.3;-17.7;36.814346;-119.74833;;336.63804808386834;;124.322586;;0 / 0;26143;2015-09-17 17:18:43:152
-0.8236;-0.3998;11.0456;-0.4349;0.1784;0.5034;-53.9;-11.5;-17.7;36.814346;-119.74833;;336.63804808386834;;124.322586;;0 / 0;26245;2015-09-17 17:18:43:254
-1.986;0.6692;8.3127;0.4056;0.1283;0.5266;-50.9;-12.2;-17.2;36.814346;-119.74833;;336.63804808386834;;124.322586;;0 / 0;26347;2015-09-17 17:18:43:356
-2.4253;0.9936;8.8921;0.0782;0.992;1.4905;-41.9;-14.9;-16.6;36.814346;-119.74833;;336.63804808386834;;124.322586;;0 / 0;26449;2015-09-17 17:18:43:458
-1.2486;0.249;10.7212;-0.7123;1.0519;1.7593;-30.6;-19.3;-13.2;36.814346;-119.74833;;336.63804808386834;;124.322586;;0 / 0;26552;2015-09-17 17:18:43:561
0.2837;0.3855;12.0261;0.8662;0.4044;1.0898;-26.3;-22.8;-8.4;36.814346;-119.74833;;336.63804808386834;;124.322586;;0 / 0;26653;2015-09-17 17:18:43:662
-0.571;1.1037;11.6885;-0.2468;0.788;0.8198;-21.2;-26.7;-2.8;36.814346;-119.74833;;336.63804808386834;;124.322586;;0 / 0;26755;2015-09-17 17:18:43:764
-1.2929;1.0331;8.9842;0.2847;-0.7868;-0.0904;-20.7;-25.7;-3.0;36.814346;-119.74833;;336.63804808386834;;124.322586;;0 / 0;26858;2015-09-17 17:18:43:867
-1.3384;1.5311;8.4228;0.0953;-0.8369;0.1112;-19.9;-26.9;-2.0;36.814346;-119.74833;;336.63804808386834;;124.322586;;0 / 0;26959;2015-09-17 17:18:43:968
-1.6759;2.4301;8.1954;-0.121;-0.5986;-0.1087;-18.5;-26.5;-0.8;36.814346;-119.74833;;336.63804808386834;;124.322586;;0 / 0;27061;2015-09-17 17:18:44:070
-2.223;2.6348;9.596;-0.204;0.0525;-0.1161;-16.7;-25.6;-0.6;36.814346;-119.74833;;336.63804808386834;;124.322586;;0 / 0;27163;2015-09-17 17:18:44:172
-1.324;2.5091;9.8138;-0.1002;-0.1222;0.033;-15.2;-25.1;-0.4;36.814346;-119.74833;;336.63804808386834;;124.322586;;0 / 0;27266;2015-09-17 17:18:44:275
-0.7314;1.6233;10.307;-0.0843;0.0232;0.0049;-12.8;-24.1;0.7;36.814346;-119.74833;;336.63804808386834;;124.322586;;0 / 0;27367;2015-09-17 17:18:44:376
-0.7302;1.1073;11.7867;-0.3213;0.6927;-0.055;-11.1;-23.6;1.7;36.814346;-119.74833;;336.63804808386834;;124.322586;;0 / 0;27470;2015-09-17 17:18:44:479
-1.0163;0.1065;9.0369;0.022;-0.3335;-0.8491;-9.2;-22.3;3.4;36.814346;-119.74833;;336.63804808386834;;124.322586;;0 / 0;27572;2015-09-17 17:18:44:581
-1.5778;-0.2119;10.2592;0.215;-0.1784;-0.6304;-8.9;-20.3;3.2;36.814346;-119.74833;;336.63804808386834;;124.322586;;0 / 0;27673;2015-09-17 17:18:44:682
-0.2789;0.5531;8.6933;0.2615;-0.2908;-0.2309;-10.0;-17.6;2.3;36.814346;-119.74833;;336.63804808386834;;124.322586;;0 / 0;27775;2015-09-17 17:18:44:784
-0.7949;1.0127;8.5772;0.4252;0.584;-0.1405;-11.0;-16.1;0.7;36.814346;-119.74833;;336.63804808386834;;124.322586;;0 / 0;27877;2015-09-17 17:18:44:886
-1.093;1.4413;8.8562;-0.0452;0.0195;-0.0794;-11.6;-15.1;-0.8;36.814346;-119.74833;;336.63804808386834;;124.322586;;0 / 0;27979;2015-09-17 17:18:44:988
-1.0606;2.1955;8.1511;0.0709;-0.1796;-0.1442;-11.8;-14.6;-3.3;36.814346;-119.74833;;336.63804808386834;;124.322586;;0 / 0;28081;2015-09-17 17:18:45:090
-1.4581;2.4157;8.2061;-0.1918;0.2297;-0.1723;-12.2;-14.4;-5.1;36.814346;-119.74833;;336.63804808386834;;124.322586;;0 / 0;28183;2015-09-17 17:18:45:192
-1.3934;1.4509;13.1142;-0.573;0.7294;-0.3323;-13.3;-13.4;-8.1;36.814346;-119.74833;;336.63804808386834;;124.322586;;0 / 0;28285;2015-09-17 17:18:45:294
-2.3906;1.342;9.3577;0.3775;0.3983;-0.4814;-14.3;-12.0;-9.1;36.814346;-119.74833;;336.63804808386834;;124.322586;;0 / 0;28387;2015-09-17 17:18:45:396
-1.652;0.8667;8.9747;-0.1197;0.5058;-1.2401;-15.3;-9.5;-9.8;36.814346;-119.74833;;336.63804808386834;;124.322586;;0 / 0;28489;2015-09-17 17:18:45:498
-4.1492;1.0295;8.0649;0.7074;1.3341;-1.4771;-18.4;-5.8;-10.2;36.814346;-119.74833;;336.63804808386834;;124.322586;;0 / 0;28591;2015-09-17 17:18:45:600
-6.1687;0.6345;8.3629;1.1753;2.2565;-0.6231;-19.1;-4.8;-10.1;36.814346;-119.74833;;336.63804808386834;;124.322586;;0 / 0;28693;2015-09-17 17:18:45:702
-7.8314;1.8148;5.0482;1.3219;1.675;-0.3873;-19.2;-3.7;-10.3;36.814346;-119.74833;;336.63804808386834;;124.322586;;0 / 0;28795;2015-09-17 17:18:45:804
-9.4739;2.241;4.8255;0.8515;0.8882;-0.1442;-15.5;-5.4;-10.9;36.814346;-119.74833;;336.63804808386834;;124.322586;;0 / 0;28898;2015-09-17 17:18:45:907
-6.1471;2.5103;2.0159;-0.2492;1.5284;1.1729;-8.0;-8.4;-7.7;36.814346;-119.74833;;336.63804808386834;;124.322586;;0 / 0;28999;2015-09-17 17:18:46:008
-9.0956;1.2354;4.4604;-0.0012;0.1857;-0.0086;-3.4;-10.6;-2.6;36.814346;-119.74833;;336.63804808386834;;124.322586;;0 / 0;29101;2015-09-17 17:18:46:110
-10.4076;1.6376;3.5889;0.4191;1.6958;0.5986;0.0;-13.1;-1.8;36.814346;-119.74833;;336.63804808386834;;124.322586;;0 / 0;29203;2015-09-17 17:18:46:212
-9.3302;1.7645;3.2896;0.7966;1.5516;1.0275;1.8;-14.3;3.0;36.814346;-119.74833;;336.63804808386834;;124.322586;;0 / 0;29305;2015-09-17 17:18:46:314
-6.1196;2.9197;1.7119;0.981;1.3134;0.0452;4.1;-16.6;3.1;36.814346;-119.74833;;336.63804808386834;;124.322586;;0 / 0;29407;2015-09-17 17:18:46:416
-6.1196;2.9197;1.7119;0.981;1.3134;0.0452;4.1;-16.6;3.1;36.814346;-119.74833;;336.63804808386834;;124.322586;;0 / 0;29509;2015-09-17 17:18:46:518
-6.1196;2.9197;1.7119;0.981;1.3134;0.0452;4.1;-16.6;3.1;36.814346;-119.74833;;336.63804808386834;;124.322586;;0 / 0;29611;2015-09-17 17:18:46:620
-8.5665;1.7394;-0.4896;0.6158;-0.3372;-0.0648;6.7;-12.5;14.9;36.814346;-119.74833;;336.63804808386834;;124.322586;;0 / 0;29713;2015-09-17 17:18:46:722
-9.9383;2.0135;-1.6795;0.391;-0.5522;-0.0929;6.7;-11.0;13.1;36.814346;-119.74833;;336.63804808386834;;124.322586;;0 / 0;29815;2015-09-17 17:18:46:824
-8.8717;2.2482;0.1245;1.0153;-0.2834;-0.121;5.9;-8.8;9.8;36.814346;-119.74833;;336.63804808386834;;124.322586;;0 / 0;29918;2015-09-17 17:18:46:927
-9.4774;2.8551;-0.5842;1.2755;0.3042;-0.0745;6.1;-8.9;7.6;36.814346;-119.74833;;336.63804808386834;;124.322586;;0 / 0;30019;2015-09-17 17:18:47:028
-10.009;1.7334;-0.7829;0.7233;-0.4655;-0.5351;5.9;-8.6;4.4;36.814346;-119.74833;;336.63804808386834;;124.322586;;0 / 0;30122;2015-09-17 17:18:47:131
-11.892;1.2282;0.1927;0.3445;0.1625;0.1881;5.7;-8.4;1.4;36.814346;-119.74833;;336.63804808386834;;124.322586;;0 / 0;30223;2015-09-17 17:18:47:232
-10.6626;2.0183;-0.4369;0.5571;-0.7013;0.1417;5.6;-8.4;0.6;36.814346;-119.74833;;336.63804808386834;;124.322586;;0 / 0;30325;2015-09-17 17:18:47:334
-6.8977;0.2705;3.3627;0.3506;-1.7019;-0.1772;2.4;-8.2;-8.6;36.814346;-119.74833;;336.63804808386834;;124.322586;;0 / 0;30427;2015-09-17 17:18:47:436
-10.9762;-0.8823;3.7014;1.0898;-1.1399;-1.0763;-8.0;-8.8;-24.5;36.814346;-119.74833;;336.63804808386834;;124.322586;;0 / 0;30530;2015-09-17 17:18:47:539
-6.5374;0.844;4.8303;0.6109;-2.1588;-0.2395;-17.0;-11.5;-33.4;36.814346;-119.74833;;336.63804808386834;;124.322586;;0 / 0;30631;2015-09-17 17:18:47:640
-7.0366;0.9134;6.3339;0.4643;-2.0879;0.1466;-26.5;-13.6;-38.3;36.814346;-119.74833;;336.63804808386834;;124.322586;;0 / 0;30733;2015-09-17 17:18:47:742
-5.527;0.9086;6.5134;0.292;-2.1832;0.2981;-41.9;-16.0;-39.7;36.814346;-119.74833;;336.63804808386834;;124.322586;;0 / 0;30835;2015-09-17 17:18:47:844
-4.5274;0.1508;10.3765;-1.0763;-1.5064;0.876;-48.7;-12.8;-40.7;36.814346;-119.74833;;336.63804808386834;;124.322586;;0 / 0;30937;2015-09-17 17:18:47:946
-2.4253;-0.5842;10.41;0.1344;-0.0965;1.1814;-50.2;-8.4;-38.4;36.814346;-119.74833;;336.63804808386834;;124.322586;;0 / 0;31039;2015-09-17 17:18:48:048
-3.5961;0.2885;8.0888;0.121;-0.7856;0.9065;-52.0;-9.4;-40.5;36.814346;-119.74833;;336.63804808386834;;124.322586;;0 / 0;31141;2015-09-17 17:18:48:150
-1.4593;0.9577;9.493;-0.2883;0.0525;1.5601;-52.4;-8.0;-39.8;36.814346;-119.74833;;336.63804808386834;;124.322586;;0 / 0;31243;2015-09-17 17:18:48:252
-2.0626;2.1249;7.9954;0.3543;-0.5596;0.9249;-52.3;-7.4;-40.4;36.814346;-119.74833;;336.63804808386834;;124.322586;;0 / 0;31345;2015-09-17 17:18:48:354
-0.2813;1.9465;8.679;0.2847;-0.7905;0.6451;-54.6;-8.5;-42.7;36.814346;-119.74833;;336.63804808386834;;124.322586;;0 / 0;31447;2015-09-17 17:18:48:456
-0.8116;2.7928;10.0197;0.1845;-0.5327;0.0244;-65.0;-13.0;-42.1;36.814346;-119.74833;;336.63804808386834;;124.322586;;0 / 0;31549;2015-09-17 17:18:48:558
0.1879;1.5945;14.7172;-0.4911;0.2065;0.507;-70.9;-16.5;-38.8;36.814346;-119.74833;;336.63804808386834;;124.322586;;0 / 0;31651;2015-09-17 17:18:48:660
0.3316;0.911;8.6227;0.077;-0.43;-0.2822;-73.5;-21.7;-35.6;36.814346;-119.74833;;336.63804808386834;;124.322586;;0 / 0;31753;2015-09-17 17:18:48:762
-2.2901;1.257;11.327;-0.1466;1.1851;0.1393;-72.4;-24.1;-35.9;36.814346;-119.74833;;336.63804808386834;;124.322586;;0 / 0;31855;2015-09-17 17:18:48:864
-0.5435;2.1081;7.3574;-0.4704;-0.573;0.5705;-72.4;-24.2;-34.9;36.814346;-119.74833;;336.63804808386834;;124.322586;;0 / 0;31957;2015-09-17 17:18:48:966
-0.4058;1.5263;9.5445;-0.3567;-0.0293;1.0996;-72.0;-24.6;-34.2;36.814346;-119.74833;;336.63804808386834;;124.322586;;0 / 0;32059;2015-09-17 17:18:49:068
0.8882;1.2079;9.4068;-0.0305;-0.1307;0.9529;-71.0;-22.1;-33.6;36.814346;-119.74833;;336.63804808386834;;124.322586;;0 / 0;32161;2015-09-17 17:18:49:170
0.7805;0.9792;12.3613;0.1478;1.0837;0.8796;-70.5;-20.0;-33.2;36.814346;-119.74833;;336.63804808386834;;124.322586;;0 / 0;32263;2015-09-17 17:18:49:272
-0.8906;0.4286;13.2627;0.3409;0.9273;0.7391;-60.4;-18.7;-35.7;36.814346;-119.74833;;336.63804808386834;;124.322586;;0 / 0;32365;2015-09-17 17:18:49:374
-2.5474;1.075;7.3658;0.7709;-0.821;0.2602;-57.5;-21.6;-35.7;36.814346;-119.74833;;336.63804808386834;;124.322586;;0 / 0;32467;2015-09-17 17:18:49:476
-1.5694;2.0219;6.1842;0.11;0.7892;1.0715;-51.0;-24.8;-38.2;36.814346;-119.74833;;336.63804808386834;;124.322586;;0 / 0;32570;2015-09-17 17:18:49:579
-1.0271;1.822;11.1953;-1.4294;0.204;0.3983;-50.3;-23.4;-37.1;36.814346;-119.74833;;336.63804808386834;;124.322586;;0 / 0;32671;2015-09-17 17:18:49:680
0.2263;2.2553;8.7281;0.3286;-0.1515;-0.0745;-49.4;-24.2;-37.9;36.814346;-119.74833;;336.63804808386834;;124.322586;;0 / 0;32773;2015-09-17 17:18:49:782
-0.7937;2.2757;11.0229;0.0257;-0.2114;-0.3714;-48.4;-24.7;-37.3;36.814346;-119.74833;;336.63804808386834;;124.322586;;0 / 0;32876;2015-09-17 17:18:49:885
-1.2653;2.4732;8.8358;0.1784;-0.9859;-0.5168;-48.7;-27.4;-37.1;36.814346;-119.74833;;336.63804808386834;;124.322586;;0 / 0;32977;2015-09-17 17:18:49:986
0.6464;-0.9804;13.2579;0.4191;0.1038;-0.2896;-48.3;-30.3;-36.2;36.814346;-119.74833;;336.63804808386834;;124.322586;;0 / 0;33079;2015-09-17 17:18:50:088
-2.3331;1.1277;8.1558;0.6548;-0.3519;-0.7575;-47.1;-32.9;-35.6;36.814346;-119.74833;;336.63804808386834;;124.322586;;0 / 0;33181;2015-09-17 17:18:50:190
-0.5339;1.1265;7.4807;-0.0232;-0.1857;0.2541;-43.0;-37.6;-35.3;36.814346;-119.74833;;336.63804808386834;;124.322586;;0 / 0;33283;2015-09-17 17:18:50:292
-0.9373;1.7406;8.8035;-0.16;0.2993;0.1808;-42.4;-38.0;-34.4;36.814346;-119.74833;;336.63804808386834;;124.322586;;0 / 0;33385;2015-09-17 17:18:50:394
-0.759;2.2015;8.77;-0.1552;0.0293;0.1491;-39.9;-39.8;-33.6;36.814346;-119.74833;;336.63804808386834;;124.322586;;0 / 0;33488;2015-09-17 17:18:50:497
-1.1157;1.8292;10.1371;-0.0782;0.3335;0.4325;-38.2;-40.5;-33.2;36.814346;-119.74833;;336.63804808386834;;124.322586;;0 / 0;33589;2015-09-17 17:18:50:598
-0.2622;0.1652;11.5843;-0.5791;0.27;0.4887;-34.4;-42.0;-32.4;36.814346;-119.74833;;336.63804808386834;;124.322586;;0 / 0;33691;2015-09-17 17:18:50:700
-0.9924;0.6847;9.3111;0.5034;-0.2553;-0.4276;-31.4;-43.2;-31.3;36.814346;-119.74833;;336.63804808386834;;124.322586;;0 / 0;33793;2015-09-17 17:18:50:802
-1.4796;1.3012;8.3486;0.6206;0.4252;0.1515;-29.3;-44.1;-30.2;36.814346;-119.74833;;336.63804808386834;;124.322586;;0 / 0;33895;2015-09-17 17:18:50:904
-0.8404;2.1237;8.4144;0.237;-0.2957;0.2773;-25.2;-48.1;-25.9;36.814346;-119.74833;;336.63804808386834;;124.322586;;0 / 0;33997;2015-09-17 17:18:51:006
-0.2011;1.8423;8.3965;-0.4801;-0.0806;0.2724;-23.3;-49.7;-24.8;36.814346;-119.74833;;336.63804808386834;;124.322586;;0 / 0;34099;2015-09-17 17:18:51:108
-0.1856;2.3655;9.3865;0.2541;-0.0684;-0.1918;-20.3;-51.4;-21.4;36.814346;-119.74833;;336.63804808386834;;124.322586;;0 / 0;34201;2015-09-17 17:18:51:210
-1.0894;2.8311;10.7619;0.8503;0.0819;0.0635;-15.9;-52.6;-17.2;36.814346;-119.74833;;336.63804808386834;;124.322586;;0 / 0;34303;2015-09-17 17:18:51:312
0.1832;1.7861;12.8269;0.8418;0.755;0.1527;-10.8;-54.4;-12.2;36.814346;-119.74833;;336.63804808386834;;124.322586;;0 / 0;34405;2015-09-17 17:18:51:414
0.838;2.6671;7.5298;0.8259;-0.3201;0.0635;-8.9;-54.6;-5.5;36.814346;-119.74833;;336.63804808386834;;124.322586;;0 / 0;34507;2015-09-17 17:18:51:516
0.8152;4.1851;5.9149;0.6329;-1.0043;0.3213;-8.2;-51.9;-4.6;36.814346;-119.74833;;336.63804808386834;;124.322586;;0 / 0;34610;2015-09-17 17:18:51:619
2.7485;4.3754;9.6833;0.5767;-0.5229;-0.0953;-9.6;-50.5;-4.7;36.814346;-119.74833;;336.63804808386834;;124.322586;;0 / 0;34711;2015-09-17 17:18:51:720
1.7262;4.1875;6.9899;0.463;1.416;-0.1906;-12.0;-46.8;-3.9;36.814346;-119.74833;;336.63804808386834;;124.322586;;0 / 0;34813;2015-09-17 17:18:51:822
-0.0634;5.351;7.4543;1.2058;1.124;0.5315;-12.9;-45.3;-2.6;36.814346;-119.74833;;336.63804808386834;;124.322586;;0 / 0;34915;2015-09-17 17:18:51:924
-1.3108;5.9891;7.9883;1.1203;1.4416;0.8234;-13.2;-44.5;0.0;36.814346;-119.74833;;336.63804808386834;;124.322586;;0 / 0;35018;2015-09-17 17:18:52:027
-2.6085;6.6714;4.7573;1.7263;1.4282;0.6597;-13.3;-44.3;2.9;36.814346;-119.74833;;336.63804808386834;;124.322586;;0 / 0;35120;2015-09-17 17:18:52:129
-1.7585;7.0749;4.4245;0.8454;1.4013;1.1643;-13.7;-45.1;5.4;36.814346;-119.74833;;336.63804808386834;;124.322586;;0 / 0;35221;2015-09-17 17:18:52:230
0.328;7.9751;3.4117;1.0678;0.4459;0.7282;-14.6;-46.7;8.6;36.814346;-119.74833;;336.63804808386834;;124.322586;;0 / 0;35323;2015-09-17 17:18:52:332
0.8811;8.4156;1.8783;0.8711;0.8063;0.2663;-15.2;-47.6;10.1;36.814346;-119.74833;;336.63804808386834;;124.322586;;0 / 0;35425;2015-09-17 17:18:52:434
1.0032;8.7556;1.0906;0.6231;0.4386;0.0232;-15.7;-48.2;11.8;36.814346;-119.74833;;336.63804808386834;;124.322586;;0 / 0;35527;2015-09-17 17:18:52:536
0.6656;8.8478;1.494;0.4105;0.336;-0.1148;-15.7;-48.2;12.1;36.814346;-119.74833;;336.63804808386834;;124.322586;;0 / 0;35629;2015-09-17 17:18:52:638
0.6656;8.8478;1.494;0.4105;0.336;-0.1148;-15.7;-48.2;12.1;36.814346;-119.74833;;336.63804808386834;;124.322586;;0 / 0;35732;2015-09-17 17:18:52:741
-0.0658;9.511;0.7015;0.0965;0.0806;-0.1246;-15.8;-48.1;12.4;36.814346;-119.74833;;336.63804808386834;;124.322586;;0 / 0;35833;2015-09-17 17:18:52:842
0.0036;4.8578;8.497;-1.9878;-0.1356;0.3494;-16.7;-41.5;2.6;36.814346;-119.74833;;336.63804808386834;;124.322586;;0 / 0;35935;2015-09-17 17:18:52:944
0.4118;5.3666;6.4631;-1.7019;0.2578;0.3445;-16.9;-38.8;2.1;36.814346;-119.74833;;336.63804808386834;;124.322586;;0 / 0;36037;2015-09-17 17:18:53:046
-0.8487;4.9392;9.2572;-1.1301;0.4374;0.6145;-16.1;-34.6;0.7;36.814346;-119.74833;;336.63804808386834;;124.322586;;0 / 0;36139;2015-09-17 17:18:53:148
-1.0702;3.9133;9.1842;-0.3103;1.1179;1.3451;-16.1;-34.2;0.1;36.814346;-119.74833;;336.63804808386834;;124.322586;;0 / 0;36241;2015-09-17 17:18:53:250
-1.3084;1.415;12.5504;-1.2058;1.3158;1.3757;-13.9;-32.0;1.8;36.814346;-119.74833;;336.63804808386834;;124.322586;;0 / 0;36343;2015-09-17 17:18:53:352
-0.9254;1.4222;11.5005;-0.441;-0.5742;0.6182;-11.3;-32.4;6.5;36.814346;-119.74833;;336.63804808386834;;124.322586;;0 / 0;36445;2015-09-17 17:18:53:454
-0.7889;1.8304;10.9607;-0.2407;0.3995;1.0751;-10.5;-32.8;6.4;36.814346;-119.74833;;336.63804808386834;;124.322586;;0 / 0;36548;2015-09-17 17:18:53:557
-0.3747;2.7605;8.6682;0.4178;-0.0415;0.711;-9.6;-34.4;8.4;36.814346;-119.74833;;336.63804808386834;;124.322586;;0 / 0;36649;2015-09-17 17:18:53:658
1.1121;2.1428;8.1235;-0.3128;-0.4618;0.4007;-9.7;-36.1;8.5;36.814346;-119.74833;;336.63804808386834;;124.322586;;0 / 0;36751;2015-09-17 17:18:53:760
1.0104;2.3978;10.8828;0.1662;0.3519;-0.303;-10.2;-36.6;8.0;36.814346;-119.74833;;336.63804808386834;;124.322586;;0 / 0;36854;2015-09-17 17:18:53:863
-1.4066;2.1153;11.6765;0.4252;0.7905;-0.38;-10.5;-35.9;7.0;36.814346;-119.74833;;336.63804808386834;;124.322586;;0 / 0;36956;2015-09-17 17:18:53:965
0.2526;1.1337;9.7839;0.6316;0.4203;0.1063;-10.1;-33.7;6.7;36.814346;-119.74833;;336.63804808386834;;124.322586;;0 / 0;37057;2015-09-17 17:18:54:066
-3.9061;2.4134;8.4072;0.3262;0.1845;-0.0757;-9.6;-32.2;6.8;36.814346;-119.74833;;336.63804808386834;;124.322586;;0 / 0;37160;2015-09-17 17:18:54:169
0.7422;2.9556;6.5864;-0.474;-1.8265;-0.0049;-9.0;-30.2;6.4;36.814346;-119.74833;;336.63804808386834;;124.322586;;0 / 0;37261;2015-09-17 17:18:54:270
-0.3615;1.1552;9.8078;-1.4331;-0.9994;0.5168;-10.7;-26.6;2.9;36.814346;-119.74833;;336.63804808386834;;124.322586;;0 / 0;37363;2015-09-17 17:18:54:372
-0.0599;1.9237;9.2033;1.774;1.3158;0.4679;-10.6;-25.4;0.9;36.814346;-119.74833;;336.63804808386834;;124.322586;;0 / 0;37466;2015-09-17 17:18:54:475
-0.5243;4.051;8.0421;0.5681;1.1252;0.711;-10.6;-25.1;0.1;36.814346;-119.74833;;336.63804808386834;;124.322586;;0 / 0;37567;2015-09-17 17:18:54:576
0.7087;1.0499;13.9486;-0.8234;0.3445;0.7208;-8.0;-25.6;0.7;36.814346;-119.74833;;336.63804808386834;;124.322586;;0 / 0;37670;2015-09-17 17:18:54:679
-2.0806;2.3535;6.1986;1.0165;-0.2236;-0.2541;-5.9;-26.8;0.4;36.814346;-119.74833;;336.63804808386834;;124.322586;;0 / 0;37771;2015-09-17 17:18:54:780
0.7398;2.2829;8.9304;-0.1955;-0.3274;0.6048;-5.2;-27.3;-0.4;36.814346;-119.74833;;336.63804808386834;;124.322586;;0 / 0;37873;2015-09-17 17:18:54:882
1.221;3.4632;7.6471;0.0635;-0.4985;0.4142;-5.0;-28.9;-2.6;36.814346;-119.74833;;336.63804808386834;;124.322586;;0 / 0;37975;2015-09-17 17:18:54:984
2.2697;3.3662;9.2488;-0.1307;0.0379;-0.1417;-5.0;-30.1;-3.8;36.814346;-119.74833;;336.63804808386834;;124.322586;;0 / 0;38078;2015-09-17 17:18:55:087
0.7147;3.5805;10.5201;-0.022;-0.0281;-0.3641;-5.0;-31.1;-4.3;36.814346;-119.74833;;336.63804808386834;;124.322586;;0 / 0;38179;2015-09-17 17:18:55:188
1.5526;1.1025;14.6106;-0.347;0.7074;0.0391;-4.9;-31.4;-4.7;36.814346;-119.74833;;336.63804808386834;;124.322586;;0 / 0;38282;2015-09-17 17:18:55:291
-0.5638;1.506;8.8813;0.507;-0.1698;-0.6854;-4.7;-31.4;-4.4;36.814346;-119.74833;;336.63804808386834;;124.322586;;0 / 0;38383;2015-09-17 17:18:55:392
-0.2023;1.5467;7.5717;-0.5608;-0.2395;0.4423;-4.8;-31.7;-4.4;36.814346;-119.74833;;336.63804808386834;;124.322586;;0 / 0;38485;2015-09-17 17:18:55:494
0.6632;1.5981;8.7376;-0.6219;-0.0599;0.2272;-4.9;-32.5;-4.3;36.814346;-119.74833;;336.63804808386834;;124.322586;;0 / 0;38587;2015-09-17 17:18:55:596
-0.0048;2.326;8.3546;0.2028;0.16;0.1038;-5.5;-33.1;-4.6;36.814346;-119.74833;;336.63804808386834;;124.322586;;0 / 0;38689;2015-09-17 17:18:55:698
-0.1041;1.8783;11.1043;-0.303;0.1906;0.7294;-5.6;-34.1;-4.3;36.814346;-119.74833;;336.63804808386834;;124.322586;;0 / 0;38791;2015-09-17 17:18:55:800
0.0096;1.3838;12.5935;-0.3506;0.4129;0.6634;-5.5;-35.2;-4.1;36.814346;-119.74833;;336.63804808386834;;124.322586;;0 / 0;38893;2015-09-17 17:18:55:902
-1.5574;1.6305;9.2584;0.4264;-0.2969;0.0147;-5.2;-37.6;-3.6;36.814346;-119.74833;;336.63804808386834;;124.322586;;0 / 0;38995;2015-09-17 17:18:56:004
-0.8045;1.6951;7.9739;-0.0513;-0.0513;0.7953;-5.1;-39.6;-3.1;36.814346;-119.74833;;336.63804808386834;;124.322586;;0 / 0;39097;2015-09-17 17:18:56:106
-0.0431;2.1476;8.5461;0.1869;0.0195;0.1759;-5.4;-42.8;-2.4;36.814346;-119.74833;;336.63804808386834;;124.322586;;0 / 0;39199;2015-09-17 17:18:56:208
0.2095;2.1955;9.3972;-0.1808;0.0037;0.2248;-5.6;-44.9;-1.8;36.814346;-119.74833;;336.63804808386834;;124.322586;;0 / 0;39301;2015-09-17 17:18:56:310
0.2095;2.6624;9.4499;-0.1466;0.0281;-0.0867;-6.3;-47.3;-1.7;36.814346;-119.74833;;336.63804808386834;;124.322586;;0 / 0;39403;2015-09-17 17:18:56:412
-0.3735;2.7916;10.4555;0.2346;-0.193;-0.1271;-6.6;-48.1;-1.5;36.814346;-119.74833;;336.63804808386834;;124.322586;;0 / 0;39505;2015-09-17 17:18:56:514
0.7865;1.0319;13.2375;-0.2541;0.2541;0.281;-7.0;-48.5;-1.3;36.814346;-119.74833;;336.63804808386834;;124.322586;;0 / 0;39607;2015-09-17 17:18:56:616
0.2873;0.911;9.0573;0.5962;-0.1955;-0.3372;-6.8;-48.7;-0.8;36.814346;-119.74833;;336.63804808386834;;124.322586;;0 / 0;39709;2015-09-17 17:18:56:718
0.0622;1.8639;9.2763;0.121;-0.1662;0.2077;-6.2;-49.0;0.5;36.814346;-119.74833;;336.63804808386834;;124.322586;;0 / 0;39811;2015-09-17 17:18:56:820
-0.6393;2.7222;7.8733;0.0941;0.3812;0.1552;-5.2;-49.5;2.0;36.814346;-119.74833;;336.63804808386834;;124.322586;;0 / 0;39913;2015-09-17 17:18:56:922
-0.4274;2.7282;9.3649;0.0305;0.3348;0.3042;-4.6;-49.6;2.9;36.814346;-119.74833;;336.63804808386834;;124.322586;;0 / 0;40015;2015-09-17 17:18:57:024
-0.5758;2.6348;10.2424;-0.3445;0.3641;0.6866;-3.7;-50.1;3.4;36.814346;-119.74833;;336.63804808386834;;124.322586;;0 / 0;40118;2015-09-17 17:18:57:127
-0.9505;3.0155;9.9048;-0.1136;0.1723;0.5168;-3.2;-50.6;3.8;36.814346;-119.74833;;336.63804808386834;;124.322586;;0 / 0;40219;2015-09-17 17:18:57:228
-0.5878;1.8399;12.0452;-0.3629;0.4643;0.8796;-2.9;-51.6;4.5;36.814346;-119.74833;;336.63804808386834;;124.322586;;0 / 0;40322;2015-09-17 17:18:57:331
-2.575;2.4924;8.6766;0.3616;0.2602;0.4789;-2.6;-52.5;5.3;36.814346;-119.74833;;336.63804808386834;;124.322586;;0 / 0;40423;2015-09-17 17:18:57:432
-0.1041;2.8563;7.2508;0.2651;-0.2724;0.7147;-2.3;-54.1;7.1;36.814346;-119.74833;;336.63804808386834;;124.322586;;0 / 0;40525;2015-09-17 17:18:57:534
-1.0127;3.7876;7.3179;0.2443;0.2602;0.5082;-2.2;-55.5;8.3;36.814346;-119.74833;;336.63804808386834;;124.322586;;0 / 0;40627;2015-09-17 17:18:57:636
0.4585;3.6045;9.6798;-0.171;-0.044;0.3079;-2.2;-56.7;9.5;36.814346;-119.74833;;336.63804808386834;;124.322586;;0 / 0;40729;2015-09-17 17:18:57:738
-0.8296;3.395;9.5265;-0.0134;-0.0318;-0.215;-1.5;-57.5;10.4;36.814346;-119.74833;;336.63804808386834;;124.322586;;0 / 0;40831;2015-09-17 17:18:57:840
0.4597;1.7394;11.1199;-0.1735;0.0208;-0.0916;-0.2;-55.8;10.6;36.814346;-119.74833;;336.63804808386834;;124.322586;;0 / 0;40933;2015-09-17 17:18:57:942
-0.2167;1.9201;7.9763;0.325;-0.3604;-0.4337;0.4;-53.8;10.3;36.814346;-119.74833;;336.63804808386834;;124.322586;;0 / 0;41036;2015-09-17 17:18:58:045
-2.132;2.2889;9.7839;-0.3348;0.8442;0.3983;1.0;-51.4;10.3;36.814346;-119.74833;;336.63804808386834;;124.322586;;0 / 0;41137;2015-09-17 17:18:58:146
-1.2007;2.988;8.4874;-0.0696;0.2639;0.4985;1.4;-48.8;10.7;36.814346;-119.74833;;336.63804808386834;;124.322586;;0 / 0;41239;2015-09-17 17:18:58:248
-0.7769;2.9269;9.0656;-0.1283;0.1735;0.6976;1.2;-47.7;11.9;36.814346;-119.74833;;336.63804808386834;;124.322586;;0 / 0;41341;2015-09-17 17:18:58:350
-1.0546;3.6703;9.25;0.0611;0.1649;0.7538;0.8;-48.0;12.7;36.814346;-119.74833;;336.63804808386834;;124.322586;;0 / 0;41443;2015-09-17 17:18:58:452
-0.6608;3.1987;9.7719;-0.1185;0.3726;0.5168;-0.2;-48.9;13.4;36.814346;-119.74833;;336.63804808386834;;124.322586;;0 / 0;41545;2015-09-17 17:18:58:554
-1.3838;2.6252;8.9699;0.033;0.7086;0.4655;-0.8;-49.7;13.9;36.814346;-119.74833;;336.63804808386834;;124.322586;;0 / 0;41647;2015-09-17 17:18:58:656
-1.6604;1.9034;7.3466;0.0464;-0.0513;0.672;-2.1;-50.6;15.1;36.814346;-119.74833;;336.63804808386834;;124.322586;;0 / 0;41749;2015-09-17 17:18:58:758
-1.5203;2.3092;10.7093;0.2798;-0.3299;0.6561;-3.7;-51.7;15.2;36.814346;-119.74833;;336.63804808386834;;124.322586;;0 / 0;41852;2015-09-17 17:18:58:861
-0.498;2.5762;8.7149;0.1381;-0.3531;0.463;-5.0;-52.5;14.5;36.814346;-119.74833;;336.63804808386834;;124.322586;;0 / 0;41954;2015-09-17 17:18:58:963
-0.5495;2.8048;8.2468;0.0428;-0.0342;0.1148;-7.1;-53.7;12.5;36.814346;-119.74833;;336.63804808386834;;124.322586;;0 / 0;42055;2015-09-17 17:18:59:064
-1.0666;3.0765;8.7053;-0.0623;0.0648;0.0098;-8.1;-54.0;11.3;36.814346;-119.74833;;336.63804808386834;;124.322586;;0 / 0;42157;2015-09-17 17:18:59:166
-1.0942;3.0957;9.572;-0.0623;0.0806;0.1014;-9.3;-53.9;10.1;36.814346;-119.74833;;336.63804808386834;;124.322586;;0 / 0;42259;2015-09-17 17:18:59:268
-0.9816;3.2717;9.2069;0.0244;-0.2028;0.0318;-10.0;-53.7;9.5;36.814346;-119.74833;;336.63804808386834;;124.322586;;0 / 0;42361;2015-09-17 17:18:59:370
-0.5974;1.0319;9.9982;-0.0562;0.3054;0.2175;-11.3;-53.2;8.7;36.814346;-119.74833;;336.63804808386834;;124.322586;;0 / 0;42463;2015-09-17 17:18:59:472
-2.2146;1.2091;8.6993;0.3372;-0.2272;0.0134;-12.2;-52.9;8.6;36.814346;-119.74833;;336.63804808386834;;124.322586;;0 / 0;42566;2015-09-17 17:18:59:575
-1.579;2.0554;7.039;0.6414;0.0794;1.0544;-13.7;-52.8;8.3;36.814346;-119.74833;;336.63804808386834;;124.322586;;0 / 0;42667;2015-09-17 17:18:59:676
0.6129;2.2805;10.2855;-0.854;-0.4423;1.1472;-15.2;-53.2;8.4;36.814346;-119.74833;;336.63804808386834;;124.322586;;0 / 0;42769;2015-09-17 17:18:59:778
-0.6117;2.6013;10.161;-0.3824;0.5534;0.9187;-17.9;-54.1;8.0;36.814346;-119.74833;;336.63804808386834;;124.322586;;0 / 0;42871;2015-09-17 17:18:59:880
0.4118;2.3487;10.1107;-0.2627;0.4594;1.036;-20.2;-54.8;8.2;36.814346;-119.74833;;336.63804808386834;;124.322586;;0 / 0;42973;2015-09-17 17:18:59:982
0.4729;2.1165;10.2771;0.1234;0.5449;0.8931;-22.2;-55.1;8.5;36.814346;-119.74833;;336.63804808386834;;124.322586;;0 / 0;43075;2015-09-17 17:19:00:084
-0.9254;1.9285;10.422;-0.1808;0.5986;1.0544;-23.2;-55.3;9.1;36.814346;-119.74833;;336.63804808386834;;124.322586;;0 / 0;43177;2015-09-17 17:19:00:186
0.1604;1.6843;7.4747;0.2712;-0.0525;0.7795;-24.8;-55.6;10.0;36.814346;-119.74833;;336.63804808386834;;124.322586;;0 / 0;43279;2015-09-17 17:19:00:288
-1.0714;1.9058;10.817;-0.3091;0.672;1.0372;-25.8;-55.7;11.0;36.814346;-119.74833;;336.63804808386834;;124.322586;;0 / 0;43381;2015-09-17 17:19:00:390
0.8332;2.2697;8.9495;-0.0098;-0.0672;0.8699;-27.4;-55.8;12.1;36.814346;-119.74833;;336.63804808386834;;124.322586;;0 / 0;43484;2015-09-17 17:19:00:493
-0.1448;2.2661;9.1135;-0.0623;0.0232;0.5082;-29.2;-55.8;13.1;36.814346;-119.74833;;336.63804808386834;;124.322586;;0 / 0;43586;2015-09-17 17:19:00:595
0.4345;2.4924;9.0728;-0.1943;-0.0012;0.3384;-30.0;-55.7;13.4;36.814346;-119.74833;;336.63804808386834;;124.322586;;0 / 0;43687;2015-09-17 17:19:00:696
0.1006;2.5498;9.159;-0.1051;-0.1429;0.0318;-30.1;-55.3;14.2;36.814346;-119.74833;;336.63804808386834;;124.322586;;0 / 0;43790;2015-09-17 17:19:00:799
0.723;2.7677;10.8278;0.4019;0.8234;0.2248;-29.5;-54.8;15.1;36.814346;-119.74833;;336.63804808386834;;124.322586;;0 / 0;43891;2015-09-17 17:19:00:900
-1.7382;1.2091;10.3322;-0.3176;2.4044;1.273;-28.1;-53.4;18.6;36.814346;-119.74833;;336.63804808386834;;124.322586;;0 / 0;43994;2015-09-17 17:19:01:003
-2.8683;1.737;10.5512;0.4386;0.6402;0.4117;-28.5;-51.2;23.8;36.814346;-119.74833;;336.63804808386834;;124.322586;;0 / 0;44095;2015-09-17 17:19:01:104
-2.6612;1.5766;8.0278;-0.7709;0.5608;0.562;-28.1;-49.4;26.9;36.814346;-119.74833;;336.63804808386834;;124.322586;;0 / 0;44198;2015-09-17 17:19:01:207
-4.4424;2.3966;8.8346;0.2138;0.6292;0.0892;-28.2;-48.6;27.7;36.814346;-119.74833;;336.63804808386834;;124.322586;;0 / 0;44299;2015-09-17 17:19:01:308
-3.2046;1.8447;8.5677;-0.2773;-0.6585;0.2896;-28.1;-48.1;26.7;36.814346;-119.74833;;336.63804808386834;;124.322586;;0 / 0;44401;2015-09-17 17:19:01:410
-1.9022;2.8706;9.8354;0.1246;0.0061;1.6787;-28.2;-49.1;24.6;36.814346;-119.74833;;336.63804808386834;;124.322586;;0 / 0;44504;2015-09-17 17:19:01:513
3.6176;4.4496;4.6136;-1.9511;-1.0531;0.0024;-29.3;-50.3;24.0;36.814346;-119.74833;;336.63804808386834;;124.322586;;0 / 0;44605;2015-09-17 17:19:01:614
2.059;2.8431;10.3681;-0.8821;-0.8711;-0.551;-30.8;-52.3;23.5;36.814346;-119.74833;;336.63804808386834;;124.322586;;0 / 0;44707;2015-09-17 17:19:01:716
-2.32;1.9597;6.8666;-0.0635;-1.4074;-0.8125;-19.4;-39.7;33.7;36.814346;-119.74833;;336.63804808386834;;124.322586;;0 / 0;44809;2015-09-17 17:19:01:818
-2.6995;-1.2558;9.0621;-0.9077;-1.0825;-0.1491;11.2;-21.0;-5.3;36.814346;-119.74833;;336.63804808386834;;124.322586;;0 / 0;44911;2015-09-17 17:19:01:920
-5.7461;-3.6368;10.0509;-0.2957;0.1918;-0.1161;15.2;-10.1;-60.0;36.814346;-119.74833;;336.63804808386834;;124.322586;;0 / 0;45014;2015-09-17 17:19:02:023
-1.1049;-1.8579;11.9147;-0.9444;0.0794;0.3299;24.0;-7.2;-92.7;36.814346;-119.74833;;336.63804808386834;;124.322586;;0 / 0;45115;2015-09-17 17:19:02:124
0.2394;-3.0143;9.1913;-0.0904;0.5424;0.3189;43.4;-31.6;-121.4;36.814346;-119.74833;;336.63804808386834;;124.322586;;0 / 0;45217;2015-09-17 17:19:02:226
0.8619;-2.6719;9.5074;0.6573;0.4704;0.2077;50.3;-53.4;-120.4;36.814346;-119.74833;;336.63804808386834;;124.322586;;0 / 0;45320;2015-09-17 17:19:02:329
1.142;-1.1636;9.5936;0.2541;0.474;-0.0745;60.1;-68.0;-113.2;36.814346;-119.74833;;336.63804808386834;;124.322586;;0 / 0;45421;2015-09-17 17:19:02:430
0.0527;-0.7697;12.864;1.4881;2.1698;0.0953;64.7;-70.4;-110.8;36.814346;-119.74833;;336.63804808386834;;124.322586;;0 / 0;45523;2015-09-17 17:19:02:532
-0.4202;0.0658;10.2532;0.0489;0.1503;-0.2358;62.0;-68.9;-115.5;36.814346;-119.74833;;336.63804808386834;;124.322586;;0 / 0;45626;2015-09-17 17:19:02:635
-0.1437;-0.0383;9.6989;0.0183;0.0733;0.0;63.4;-69.8;-113.8;36.814346;-119.74833;;336.63804808386834;;124.322586;;0 / 0;45727;2015-09-17 17:19:02:736
-0.1712;-0.0287;9.7372;0.0049;0.0;-0.0012;63.7;-70.0;-114.2;36.814346;-119.74833;;336.63804808386834;;124.322586;;0 / 0;45829;2015-09-17 17:19:02:838
-0.1688;-0.0275;9.7348;0.0012;-0.0024;-0.0012;63.2;-69.3;-114.9;36.814346;-119.74833;;336.63804808386834;;124.322586;;0 / 0;45932;2015-09-17 17:19:02:941
-0.1676;-0.0239;9.7013;0.0024;-0.0012;-0.0012;63.5;-69.3;-114.7;36.814346;-119.74833;;336.63804808386834;;124.322586;;0 / 0;46033;2015-09-17 17:19:03:042
-0.1628;-0.0287;9.7288;0.0;-0.0037;-0.0024;63.5;-69.3;-114.6;36.814346;-119.74833;;336.63804808386834;;124.322586;;0 / 0;46136;2015-09-17 17:19:03:145
-0.1664;-0.0144;9.5301;0.0098;0.088;0.0;63.5;-69.3;-114.5;36.814346;-119.74833;;336.63804808386834;;124.322586;;0 / 0;46237;2015-09-17 17:19:03:246