ACCELEROMETER X (m/s²),ACCELEROMETER Y (m/s²),ACCELEROMETER Z (m/s²),GRAVITY X (m/s²),GRAVITY Y (m/s²),GRAVITY Z (m/s²),GYROSCOPE X (rad/s),GYROSCOPE Y (rad/s),GYROSCOPE Z (rad/s),MAGNETIC FIELD X (μT),MAGNETIC FIELD Y (μT),MAGNETIC FIELD Z (μT),ORIENTATION Z (azimuth °),ORIENTATION X (pitch °),ORIENTATION Y (roll °),LOCATION Latitude : ,LOCATION Longitude : ,LOCATION Altitude ( m),LOCATION Altitude-google ( m),LOCATION Speed ( Kmh),LOCATION Accuracy ( m),LOCATION ORIENTATION (°),Satellites in range,Time since start in ms ,YYYY-MO-DD HH-MI-SS_SSS
-0.5555,1.3144,9.9108,-0.5401,1.2952,9.7057,-0.0525,-0.0379,0.0098,-0.9,14.8,-47.2,9.73,-7.59,3.19,36.81401,-119.74728,273.08,336.99731547286586,2.45,309.6774,138.1,15 / 17,50,2015-10-30 10:09:03:118
-0.5602,1.3048,9.8737,-0.5139,1.2658,9.711,-0.055,-0.0208,0.0318,-1.0,15.0,-47.1,9.63,-7.49,3.12,36.81401,-119.74728,273.08,336.99731547286586,2.45,309.6774,138.1,15 / 17,153,2015-10-30 10:09:03:221
-0.48,1.1779,9.2608,-0.5254,1.2617,9.7109,0.0134,0.0623,0.033,-1.2,15.3,-47.2,9.43,-7.39,3.02,36.81401,-119.74728,273.08,336.99731547286586,2.45,309.6774,138.1,15 / 17,255,2015-10-30 10:09:03:323
-0.1676,1.142,9.5253,-0.4955,1.2017,9.7201,-0.0538,0.0391,-0.0464,-1.1,15.3,-46.9,9.38,-7.17,2.96,36.81401,-119.74728,273.08,336.99731547286586,2.45,309.6774,138.1,15 / 17,356,2015-10-30 10:09:03:424
-0.7171,1.3012,9.8988,-0.5252,1.1616,9.7234,-0.055,0.0293,-0.0745,-1.1,15.5,-46.7,9.36,-6.8,3.09,36.81401,-119.74728,273.08,336.99731547286586,2.45,309.6774,138.1,15 / 17,459,2015-10-30 10:09:03:527
-0.3591,1.142,9.748,-0.4859,1.1394,9.7281,-0.0379,-0.0391,0.0489,-0.9,15.6,-46.4,9.05,-6.7,2.97,36.81401,-119.74728,273.08,336.99731547286586,2.45,309.6774,138.1,15 / 17,560,2015-10-30 10:09:03:628
-0.5351,1.257,9.3553,-0.4532,1.1216,9.7318,0.0171,-0.0501,-0.0159,-1.2,15.9,-46.2,8.61,-6.55,2.74,36.81401,-119.74728,273.08,336.99731547286586,2.45,309.6774,138.1,15 / 17,662,2015-10-30 10:09:03:730
-0.2239,1.1133,9.7971,-0.4299,1.0795,9.7376,-0.0122,0.0354,0.022,-1.3,15.9,-46.4,8.27,-6.44,2.57,36.81401,-119.74728,273.08,336.99731547286586,2.45,309.6774,138.1,15 / 17,764,2015-10-30 10:09:03:832
-0.2933,1.1145,9.9599,-0.4319,1.0571,9.7399,-0.0525,0.0024,0.0195,-1.5,16.1,-46.6,8.37,-6.29,2.56,36.81401,-119.74728,273.08,336.99731547286586,2.45,309.6774,138.1,15 / 17,866,2015-10-30 10:09:03:934
-0.4154,1.1205,9.493,-0.4272,1.0795,9.7377,0.0183,-0.0086,0.0232,-1.6,16.2,-46.6,10.95,-6.29,2.52,36.81401,-119.74728,273.08,336.99731547286586,2.45,309.6774,138.1,15 / 17,968,2015-10-30 10:09:04:036
-0.249,1.0487,9.6403,-0.4302,1.0521,9.7405,-0.0122,0.0244,-0.0122,-1.6,16.3,-46.5,10.9,-6.22,2.52,36.81401,-119.74728,273.08,336.99731547286586,2.45,309.6774,138.1,15 / 17,1071,2015-10-30 10:09:04:139
-0.3579,1.1588,9.7767,-0.4514,1.0592,9.7388,-0.0098,0.0171,-0.0208,-1.6,16.3,-46.4,11.17,-6.21,2.65,36.81401,-119.74728,273.08,336.99731547286586,2.45,309.6774,138.1,15 / 17,1172,2015-10-30 10:09:04:240
-0.4549,1.136,9.5481,-0.4433,1.0759,9.7374,0.0269,-0.0269,-0.0183,-1.5,16.3,-46.4,8.47,-6.28,2.64,36.81401,-119.74728,273.08,336.99731547286586,2.45,309.6774,138.1,15 / 17,1275,2015-10-30 10:09:04:343
-0.5555,1.1109,9.8318,-0.4642,1.0777,9.7362,0.0098,0.055,0.0024,-1.4,16.4,-46.4,8.53,-6.3,2.67,36.81401,-119.74728,273.08,336.99731547286586,2.45,309.6774,138.1,15 / 17,1376,2015-10-30 10:09:04:444
-0.5303,1.2378,9.5529,-0.4523,1.089,9.7355,0.0012,-0.0403,0.0122,-1.4,16.4,-46.3,8.56,-6.36,2.69,36.81401,-119.74728,273.08,336.99731547286586,2.45,309.6774,138.1,15 / 17,1478,2015-10-30 10:09:04:546
-0.3783,1.1468,9.5325,-0.4361,1.1067,9.7342,0.0244,-0.0012,0.0244,-1.3,16.2,-46.3,8.38,-6.46,2.62,36.81401,-119.74728,273.08,336.99731547286586,2.45,309.6774,138.1,16 / 17,1580,2015-10-30 10:09:04:648
-0.1879,1.0271,9.7372,-0.42,1.1085,9.7347,-0.0195,-0.0318,0.0342,-1.4,16.1,-46.4,8.05,-6.49,2.47,36.81401,-119.74728,273.08,336.99731547286586,2.45,309.6774,138.1,16 / 17,1683,2015-10-30 10:09:04:751
-0.2334,1.0511,9.7827,-0.4052,1.1104,9.7351,0.0086,-0.0086,-0.0269,-1.3,16.0,-46.7,7.83,-6.49,2.34,36.81401,-119.74728,273.08,336.99731547286586,2.45,309.6774,138.1,16 / 17,1785,2015-10-30 10:09:04:853
-0.3819,1.1696,9.4511,-0.4117,1.1138,9.7345,0.011,-0.0049,-0.0293,-1.2,15.9,-46.8,8.01,-6.52,2.42,36.81401,-119.74728,273.08,336.99731547286586,2.45,309.6774,138.1,16 / 17,1887,2015-10-30 10:09:04:955
-0.2969,1.1899,9.7324,-0.3844,1.1104,9.736,-0.0464,-0.0049,0.0086,-1.2,15.9,-46.9,7.7,-6.57,2.29,36.81401,-119.74728,273.08,336.99731547286586,2.45,309.6774,138.1,16 / 17,1989,2015-10-30 10:09:05:057
-0.3663,1.1456,9.7863,-0.3791,1.0908,9.7384,-0.0305,0.0049,0.0086,-1.4,15.9,-46.7,7.63,-6.39,2.23,36.81401,-119.74728,273.08,336.99731547286586,2.45,309.6774,138.1,16 / 17,2091,2015-10-30 10:09:05:159
-0.3879,1.1612,9.6259,-0.3715,1.0741,9.7406,-0.0049,0.0195,0.0012,-1.5,16.0,-46.5,7.54,-6.34,2.22,36.81401,-119.74728,273.08,336.99731547286586,2.45,309.6774,138.1,16 / 17,2192,2015-10-30 10:09:05:260
-0.249,1.0726,9.7061,-0.3672,1.0775,9.7404,-0.011,0.0086,-0.0073,-1.7,16.2,-46.4,10.11,-6.32,2.17,36.81401,-119.74728,273.08,336.99731547286586,2.45,309.6774,138.1,16 / 17,2294,2015-10-30 10:09:05:362
-0.2454,1.081,9.3937,-0.3742,1.0602,9.742,-0.0745,0.0037,-0.0367,-1.7,16.3,-46.5,10.17,-6.3,2.19,36.81401,-119.74728,273.08,336.99731547286586,2.45,309.6774,138.1,16 / 17,2397,2015-10-30 10:09:05:465
-0.4082,1.1624,9.6558,-0.3923,1.0563,9.7417,0.0122,0.0244,-0.0244,-1.7,16.3,-46.6,10.47,-6.18,2.28,36.81401,-119.74728,273.08,336.99731547286586,2.45,309.6774,138.1,16 / 17,2498,2015-10-30 10:09:05:566
-0.3519,1.063,9.9359,-0.3906,1.0392,9.7436,-0.0379,0.0159,0.0122,-1.6,16.4,-46.9,10.47,-6.09,2.27,36.81401,-119.74728,273.08,336.99731547286586,2.45,309.6774,138.1,16 / 17,2600,2015-10-30 10:09:05:668
-0.4549,1.1073,9.742,-0.3881,1.0522,9.7423,-0.0061,0.0183,-0.0134,-1.6,16.5,-46.6,10.01,-6.16,2.28,36.81401,-119.74728,273.08,336.99731547286586,2.45,309.6774,138.1,16 / 17,2703,2015-10-30 10:09:05:771
-0.2047,1.0463,9.6929,-0.3919,1.0473,9.7427,-0.0159,0.0122,0.0,-1.6,16.4,-46.5,10.48,-6.13,2.3,36.81401,-119.74728,273.08,336.99731547286586,2.45,309.6774,138.1,16 / 17,2804,2015-10-30 10:09:05:872
-0.4142,1.1803,9.4176,-0.3861,1.0491,9.7427,0.0061,-0.0086,-0.022,-1.4,16.2,-46.6,7.71,-6.12,2.24,36.81401,-119.74728,273.08,336.99731547286586,2.45,309.6774,138.1,16 / 17,2906,2015-10-30 10:09:05:974
-0.3412,1.1109,9.6798,-0.3869,1.0465,9.743,0.0257,0.0086,-0.0073,-1.5,16.1,-46.8,7.79,-6.09,2.26,36.81401,-119.74728,273.08,336.99731547286586,2.45,309.6774,138.1,16 / 17,3008,2015-10-30 10:09:06:076
-0.34,1.1265,9.6702,-0.3667,1.0477,9.7436,-0.0012,0.0012,0.0073,-1.6,16.3,-47.2,10.25,-6.13,2.17,36.81401,-119.74728,273.08,336.99731547286586,2.45,309.6774,138.1,16 / 17,3111,2015-10-30 10:09:06:179
-0.2346,1.0618,9.7097,-0.3575,1.0425,9.7445,-0.0305,-0.0073,0.0122,-1.8,16.4,-47.3,10.15,-6.1,2.12,36.81401,-119.74728,273.08,336.99731547286586,2.45,309.6774,138.1,16 / 17,3212,2015-10-30 10:09:06:280
-0.3124,1.0882,9.5852,-0.3592,1.0321,9.7456,0.0012,-0.0147,-0.0024,-1.8,16.5,-47.3,9.74,-6.04,2.13,36.81401,-119.74728,273.08,336.99731547286586,2.45,309.6774,138.1,16 / 17,3315,2015-10-30 10:09:06:383
-0.3196,1.0846,9.7755,-0.3708,1.0172,9.7467,-0.0391,0.0049,0.0061,-1.7,16.4,-47.0,10.32,-5.99,2.18,36.81401,-119.74728,273.08,336.99731547286586,2.45,309.6774,138.1,16 / 17,3417,2015-10-30 10:09:06:485
-0.4322,1.1205,9.7025,-0.3819,1.0123,9.7468,-0.0037,0.0244,0.0208,-1.7,16.4,-46.7,10.48,-5.92,2.24,36.81401,-119.74728,273.08,336.99731547286586,2.45,309.6774,138.1,16 / 17,3518,2015-10-30 10:09:06:586
-0.3077,1.0558,9.6247,-0.3777,1.011,9.7471,-0.0122,-0.0037,0.0183,-1.7,16.4,-46.4,10.37,-5.92,2.22,36.81401,-119.74728,273.08,336.99731547286586,2.45,309.6774,138.1,16 / 17,3621,2015-10-30 10:09:06:689
-0.334,1.0953,9.5301,-0.3678,1.0224,9.7463,0.0208,0.0122,0.0049,-1.7,16.5,-46.4,9.75,-5.96,2.15,36.81401,-119.74728,273.08,336.99731547286586,2.45,309.6774,138.1,16 / 17,3722,2015-10-30 10:09:06:790
-0.2322,1.0726,9.6798,-0.3705,1.0127,9.7472,0.0391,0.0257,-0.0098,-1.6,16.5,-46.8,9.87,-5.93,2.18,36.81401,-119.74728,273.08,336.99731547286586,2.45,309.6774,138.1,16 / 17,3825,2015-10-30 10:09:06:893
-0.3783,1.1217,9.6774,-0.3759,1.0266,9.7455,-0.0049,-0.0086,-0.011,-1.6,16.5,-46.9,9.94,-6.01,2.22,36.81401,-119.74728,273.08,336.99731547286586,2.45,309.6774,138.1,16 / 17,3926,2015-10-30 10:09:06:994
-0.3926,1.0714,9.6175,-0.379,1.0288,9.7452,0.0208,-0.0049,-0.0122,-1.6,16.5,-46.9,9.94,-6.02,2.23,36.81401,-119.74728,273.08,336.99731547286586,2.45,309.6774,138.1,16 / 17,4028,2015-10-30 10:09:07:096
-0.4022,1.1803,9.5636,-0.3786,1.039,9.7441,0.0049,0.0024,0.0012,-1.5,16.4,-46.7,7.69,-6.03,2.21,36.81401,-119.74728,273.08,336.99731547286586,2.45,309.6774,138.1,16 / 17,4130,2015-10-30 10:09:07:198
-0.3292,1.0403,9.7947,-0.3704,1.0363,9.7447,-0.0049,-0.033,0.0073,-1.5,16.4,-46.3,7.53,-6.07,2.18,36.81401,-119.74728,273.08,336.99731547286586,2.45,309.6774,138.1,16 / 17,4233,2015-10-30 10:09:07:301
-0.3867,1.1444,9.6019,-0.3668,1.0427,9.7442,-0.022,-0.0037,0.0122,-1.6,16.4,-46.1,10.2,-6.14,2.18,36.81401,-119.74728,273.08,336.99731547286586,2.45,309.6774,138.1,16 / 17,4334,2015-10-30 10:09:07:402
-0.267,1.0618,9.8725,-0.3672,1.0322,9.7453,0.0208,0.0061,-0.0049,-1.6,16.4,-45.8,10.2,-6.07,2.16,36.81401,-119.74728,273.08,336.99731547286586,2.45,309.6774,138.1,16 / 17,4436,2015-10-30 10:09:07:504
-0.4429,1.1372,9.5768,-0.3749,1.0327,9.7449,-0.0257,-0.0159,0.0098,-1.6,16.4,-46.3,10.18,-6.04,2.15,36.81401,-119.74728,273.08,336.99731547286586,2.45,309.6774,138.1,17 / 17,4539,2015-10-30 10:09:07:607
-0.395,1.1708,9.5193,-0.3782,1.0352,9.7445,-0.0073,0.0232,0.0049,-1.6,16.4,-46.5,10.28,-6.04,2.2,36.81401,-119.74728,273.08,336.99731547286586,2.45,309.6774,138.1,17 / 17,4640,2015-10-30 10:09:07:708
-0.6045,1.3731,9.5325,-0.385,1.0382,9.7439,-0.022,0.011,-0.0049,-1.5,16.4,-46.3,7.64,-6.07,2.23,36.81401,-119.74728,273.08,336.99731547286586,2.45,309.6774,138.1,17 / 17,4743,2015-10-30 10:09:07:811
-0.5435,1.3539,9.8797,-0.409,1.0433,9.7424,-0.0183,-0.0049,-0.0244,-1.7,16.5,-46.0,10.27,-6.12,2.43,36.81401,-119.74728,273.08,336.99731547286586,2.45,309.6774,138.1,17 / 17,4844,2015-10-30 10:09:07:912
-0.1161,1.1325,9.5553,-0.3824,1.0739,9.7402,0.0293,-0.0672,-0.0318,-1.7,16.6,-46.0,10.16,-6.27,2.4,36.81401,-119.74728,273.08,336.99731547286586,2.45,309.6774,138.1,17 / 17,4947,2015-10-30 10:09:08:015
-0.4884,1.0475,9.6211,-0.3717,1.0594,9.7422,-0.0403,0.0379,-0.0415,-2.0,16.7,-46.1,9.59,-6.27,2.12,36.81401,-119.74728,273.08,336.99731547286586,2.45,309.6774,138.1,17 / 17,5048,2015-10-30 10:09:08:116
-0.4597,1.1217,9.584,-0.3937,1.0755,9.7395,0.0183,0.0562,-0.0916,-2.1,16.7,-46.2,9.85,-6.28,2.25,36.81401,-119.74728,273.08,336.99731547286586,2.45,309.6774,138.1,17 / 17,5150,2015-10-30 10:09:08:218
-0.2957,1.0403,9.7624,-0.4225,1.073,9.7386,-0.0305,0.0183,-0.0867,-2.2,16.6,-46.2,10.13,-6.25,2.38,36.81401,-119.74728,273.08,336.99731547286586,2.45,309.6774,138.1,17 / 17,5252,2015-10-30 10:09:08:320
-0.4896,1.136,9.5984,-0.4436,1.0371,9.7416,-0.0672,0.011,-0.1686,-2.3,16.5,-46.4,10.65,-6.07,2.61,36.81401,-119.74728,273.08,336.99731547286586,2.45,309.6774,138.1,17 / 17,5354,2015-10-30 10:09:08:422
-0.5171,1.1432,9.748,-0.4898,1.0148,9.7417,0.0049,0.0623,-0.2199,-2.5,16.6,-46.5,11.25,-5.94,2.88,36.81401,-119.74728,273.08,336.99731547286586,2.45,309.6774,138.1,17 / 17,5456,2015-10-30 10:09:08:524
-0.4142,1.4102,9.3913,-0.549,1.0088,9.7392,-0.0147,0.0159,-0.1271,-2.6,16.6,-46.7,14.37,-5.94,3.14,36.81401,-119.74728,273.08,336.99731547286586,2.45,309.6774,138.1,17 / 17,5559,2015-10-30 10:09:08:627
-0.4764,1.4844,9.9707,-0.5605,0.888,9.7503,-0.0929,0.0318,0.0024,-2.9,17.0,-46.5,14.82,-5.36,3.26,36.81401,-119.74728,273.08,336.99731547286586,2.45,309.6774,138.1,17 / 17,5660,2015-10-30 10:09:08:728
0.0251,1.5383,9.3996,-0.4687,0.8664,9.757,0.0073,-0.0318,0.0586,-3.1,17.4,-46.5,13.93,-5.07,2.75,36.81401,-119.74728,273.08,336.99731547286586,2.45,309.6774,138.1,17 / 17,5762,2015-10-30 10:09:08:830
-0.1652,1.5203,9.4128,-0.4532,0.9031,9.7545,-0.0134,0.0672,0.022,-3.3,17.7,-46.3,13.09,-5.21,2.67,36.81401,-119.74728,273.08,336.99731547286586,2.45,309.6774,138.1,17 / 17,5864,2015-10-30 10:09:08:932
-0.2849,1.7921,9.7564,-0.4929,0.9447,9.7486,-0.0073,0.0403,0.0428,-3.3,17.8,-46.4,13.29,-5.51,2.83,36.81401,-119.74728,273.08,336.99731547286586,2.45,309.6774,138.1,17 / 17,5966,2015-10-30 10:09:09:034
-0.0646,1.7083,10.1059,-0.5184,1.0201,9.7397,0.1405,0.0428,0.1185,-3.2,17.8,-46.4,13.56,-5.69,3.01,36.81401,-119.74728,273.08,336.99731547286586,2.45,309.6774,138.1,17 / 17,6068,2015-10-30 10:09:09:136
-0.3591,1.1612,9.9383,-0.6234,1.1351,9.7208,-0.1112,0.1026,0.3922,-2.8,17.6,-46.2,14.03,-6.58,3.47,36.81401,-119.74728,273.08,336.99731547286586,2.45,309.6774,138.1,17 / 17,6171,2015-10-30 10:09:09:239
-0.1197,0.7865,9.7217,-0.6331,1.097,9.7245,-0.0098,0.0098,0.2663,-2.3,17.5,-45.8,12.29,-6.33,3.74,36.81401,-119.74728,273.08,336.99731547286586,2.45,309.6774,138.1,17 / 17,6272,2015-10-30 10:09:09:340
-0.759,1.2546,9.2512,-0.5514,1.1538,9.7229,0.0293,-0.16,0.2737,-1.6,17.2,-45.7,12.26,-6.68,3.53,36.81401,-119.74728,273.08,336.99731547286586,2.45,309.6774,138.1,17 / 17,6374,2015-10-30 10:09:09:442
-0.8368,1.4904,9.6007,-0.5274,1.0734,9.7335,-0.1234,-0.0257,0.0831,-0.8,16.9,-45.9,8.98,-6.48,3.1,36.81401,-119.74728,273.08,336.99731547286586,2.45,309.6774,138.1,17 / 17,6476,2015-10-30 10:09:09:544
-0.6536,1.8663,8.7975,-0.4687,1.0843,9.7352,0.0684,-0.0929,-0.0195,-0.8,16.8,-46.1,8.4,-6.23,2.78,36.81401,-119.74728,273.08,336.99731547286586,2.45,309.6774,138.1,17 / 17,6578,2015-10-30 10:09:09:646
-0.5866,1.6293,9.4942,-0.4522,0.9819,9.7469,-0.0562,-0.0073,-0.0831,-0.8,16.9,-45.9,7.96,-5.97,2.53,36.81401,-119.74728,273.08,336.99731547286586,2.45,309.6774,138.1,17 / 17,6681,2015-10-30 10:09:09:749
-1.2342,1.8794,9.4798,-0.5343,0.9788,9.743,0.0819,0.0232,-0.2529,-0.9,17.1,-45.7,9.06,-5.47,2.99,36.81401,-119.74728,273.08,336.99731547286586,2.45,309.6774,138.1,17 / 17,6782,2015-10-30 10:09:09:850
-1.2318,1.476,10.3058,-0.5231,1.0312,9.7382,0.0635,-0.0415,0.0428,-1.0,17.3,-45.5,8.97,-6.04,3.07,36.81401,-119.74728,273.08,336.99731547286586,2.45,309.6774,138.1,17 / 17,6884,2015-10-30 10:09:09:952
0.3436,0.1544,10.4627,-0.4609,1.0149,9.7431,-0.0538,-0.0574,0.1295,-1.2,17.5,-45.5,8.22,-6.09,2.9,36.81401,-119.74728,273.08,336.99731547286586,2.45,309.6774,138.1,17 / 17,6986,2015-10-30 10:09:10:054
-0.2634,0.8116,8.5533,-0.472,1.2393,9.7166,0.3299,-0.066,-0.2248,-1.5,17.3,-45.8,8.35,-6.73,2.83,36.81401,-119.74728,273.08,336.99731547286586,2.45,309.6774,138.1,17 / 17,7088,2015-10-30 10:09:10:156
-0.0599,0.5351,8.9244,-0.5412,1.268,9.7093,-0.2199,-0.099,-0.011,-1.6,16.8,-46.2,11.08,-7.63,3.11,36.81401,-119.74728,273.08,336.99731547286586,2.45,309.6774,138.1,17 / 17,7191,2015-10-30 10:09:10:259
-0.4513,1.4305,8.3594,-0.489,1.1355,9.7284,0.0159,0.0183,-0.0684,-1.7,16.4,-46.6,11.48,-6.7,2.85,36.81401,-119.74728,273.08,336.99731547286586,2.45,309.6774,138.1,17 / 17,7292,2015-10-30 10:09:10:360
-0.0419,1.2043,9.42,-0.4612,1.1179,9.7318,-0.0086,-0.0293,0.1674,-1.7,16.3,-46.6,11.44,-6.53,2.8,36.81401,-119.74728,273.08,336.99731547286586,2.45,309.6774,138.1,17 / 17,7395,2015-10-30 10:09:10:463
-0.1053,1.142,10.756,-0.5009,1.0708,9.7351,-0.0061,0.0379,0.1576,-1.8,16.5,-46.4,11.32,-6.45,3.01,36.81401,-119.74728,273.08,336.99731547286586,2.45,309.6774,138.1,17 / 17,7497,2015-10-30 10:09:10:565
-1.658,1.4557,9.5852,-0.671,1.1058,9.721,-0.3274,0.1002,0.2786,-1.4,16.3,-46.1,10.44,-6.64,3.63,36.81401,-119.74728,273.08,336.99731547286586,2.45,309.6774,138.1,17 / 17,7599,2015-10-30 10:09:10:667
-0.4381,0.4298,9.1482,-0.5519,0.9322,9.7466,-0.0342,-0.2896,0.2114,-0.7,16.3,-45.8,10.06,-5.45,3.24,36.81401,-119.74728,273.08,336.99731547286586,2.45,309.6774,138.1,17 / 17,7700,2015-10-30 10:09:10:768
-0.5028,0.3172,9.7097,-0.3722,0.9957,9.7489,-0.0623,-0.1918,0.0257,-0.5,16.2,-45.9,5.78,-5.97,2.61,36.81401,-119.74728,273.08,336.99731547286586,2.45,309.6774,138.1,17 / 17,7803,2015-10-30 10:09:10:871
-0.492,0.9637,8.7424,-0.2334,0.9871,9.7541,0.0599,-0.0354,-0.2761,-0.7,16.3,-45.9,6.13,-5.64,1.49,36.81401,-119.74728,273.08,336.99731547286586,2.45,309.6774,138.1,17 / 17,7904,2015-10-30 10:09:10:972
-0.9876,1.342,8.6898,-0.2364,0.9981,9.7529,0.033,0.0513,-0.2114,-1.3,16.2,-45.9,5.65,-5.81,1.29,36.81401,-119.74728,273.08,336.99731547286586,2.45,309.6774,138.1,17 / 17,8007,2015-10-30 10:09:11:075
-0.5926,1.0032,10.3011,-0.2869,0.8977,9.7613,-0.0086,0.0403,-0.2321,-1.8,16.2,-45.9,9.27,-5.43,1.63,36.81401,-119.74728,273.08,336.99731547286586,2.45,309.6774,138.1,17 / 17,8109,2015-10-30 10:09:11:177
-1.2594,1.324,10.337,-0.4464,0.9829,9.747,0.1038,-0.0428,-0.2089,-2.4,16.3,-45.5,10.92,-5.68,2.46,36.81401,-119.74728,273.08,336.99731547286586,2.45,309.6774,138.1,17 / 17,8210,2015-10-30 10:09:11:278
-0.6129,0.4094,10.635,-0.4869,0.9454,9.7488,-0.204,0.1466,-0.1136,-2.6,16.5,-45.2,13.26,-5.8,2.62,36.81401,-119.74728,273.08,336.99731547286586,2.45,309.6774,138.1,17 / 17,8312,2015-10-30 10:09:11:380
-0.1185,0.4896,9.1854,-0.547,0.8803,9.7517,0.1527,-0.011,-0.2431,-2.8,16.7,-45.1,14.75,-5.15,3.21,36.81401,-119.74728,273.08,336.99731547286586,2.45,309.6774,138.1,17 / 17,8414,2015-10-30 10:09:11:482
-0.4393,0.4776,9.5708,-0.6731,0.8735,9.7445,-0.1576,0.0721,0.1381,-2.8,16.7,-44.9,15.48,-5.45,3.66,36.81401,-119.74728,273.08,336.99731547286586,2.45,309.6774,138.1,17 / 17,8517,2015-10-30 10:09:11:585
-0.1006,0.7889,8.6838,-0.5509,0.8451,9.7546,-0.0049,-0.1784,0.0892,-2.7,16.9,-45.0,15.57,-4.84,3.54,36.81401,-119.74728,273.08,336.99731547286586,2.45,309.6774,138.1,17 / 17,8618,2015-10-30 10:09:11:686
-0.3687,1.239,9.3996,-0.5017,0.8648,9.7556,-0.1063,-0.0342,0.0929,-2.8,16.9,-44.8,14.41,-5.13,3.03,36.81401,-119.74728,273.08,336.99731547286586,2.45,309.6774,138.1,17 / 17,8720,2015-10-30 10:09:11:788
-0.2969,1.0463,10.5584,-0.6318,0.8848,9.7462,0.0073,0.0232,0.2309,-2.6,16.9,-44.8,15.5,-5.17,3.59,36.81401,-119.74728,273.08,336.99731547286586,2.45,309.6774,138.1,17 / 17,8823,2015-10-30 10:09:11:891
-1.0211,1.1229,10.3346,-0.6606,1.0037,9.7328,-0.0195,0.2187,0.237,-2.2,16.7,-44.4,13.09,-5.87,3.88,36.81401,-119.74728,273.08,336.99731547286586,2.45,309.6774,138.1,17 / 17,8925,2015-10-30 10:09:11:993
-0.48,0.2705,11.1606,-0.7922,0.9519,9.7281,-0.2224,0.0745,0.281,-1.5,16.4,-44.4,12.46,-5.91,4.58,36.81401,-119.74728,273.08,336.99731547286586,2.45,309.6774,138.1,17 / 17,9027,2015-10-30 10:09:12:095
-0.844,0.9828,7.9895,-0.6359,1.0732,9.727,0.1759,-0.182,0.0965,-0.8,16.2,-44.5,12.34,-5.38,4.41,36.81401,-119.74728,273.08,336.99731547286586,2.45,309.6774,138.1,17 / 17,9129,2015-10-30 10:09:12:197
0.1748,0.2382,9.8509,-0.5,0.979,9.7448,-0.0648,-0.2077,0.2553,-0.5,15.9,-45.0,7.16,-5.98,3.29,36.81401,-119.74728,273.08,336.99731547286586,2.45,309.6774,138.1,17 / 17,9230,2015-10-30 10:09:12:298
-0.498,1.3372,7.926,-0.351,1.0364,9.7454,0.1625,-0.0452,-0.1429,-0.7,15.8,-44.9,7.15,-5.88,2.0,36.81401,-119.74728,273.08,336.99731547286586,2.45,309.6774,138.1,17 / 17,9332,2015-10-30 10:09:12:400
-0.7051,1.567,8.764,-0.4953,1.0176,9.7411,0.0611,-0.0794,-0.2065,-0.9,15.7,-45.1,9.07,-5.96,2.91,36.81401,-119.74728,273.08,336.99731547286586,2.45,309.6774,138.1,17 / 17,9435,2015-10-30 10:09:12:503
-0.5016,1.7573,9.2668,-0.4403,1.0102,9.7445,-0.0134,-0.0415,-0.2871,-1.3,15.9,-45.0,8.22,-5.82,2.49,36.81401,-119.74728,273.08,336.99731547286586,2.45,309.6774,138.1,17 / 17,9536,2015-10-30 10:09:12:604
-0.6177,1.646,9.7911,-0.4695,1.1278,9.7303,0.2248,0.0244,-0.2773,-1.7,16.0,-44.8,11.61,-6.36,2.92,36.81401,-119.74728,273.08,336.99731547286586,2.45,309.6774,138.1,17 / 17,9639,2015-10-30 10:09:12:707
0.1784,-0.0838,10.2627,-0.5713,1.0242,9.7363,-0.3054,0.2553,0.0635,-2.2,16.0,-44.6,12.68,-5.99,3.36,36.81401,-119.74728,273.08,336.99731547286586,2.45,309.6774,138.1,17 / 17,9740,2015-10-30 10:09:12:808
-0.1903,0.3747,9.2261,-0.471,0.9712,9.7471,0.2981,0.1808,-0.3091,-2.3,16.1,-44.5,11.35,-5.54,2.67,36.81401,-119.74728,273.08,336.99731547286586,2.45,309.6774,138.1,17 / 17,9842,2015-10-30 10:09:12:910
-0.1377,0.2765,9.7863,-0.5692,1.0168,9.7372,-0.2798,0.0501,0.2053,-2.5,16.1,-44.7,12.67,-5.95,3.35,36.81401,-119.74728,273.08,336.99731547286586,2.45,309.6774,138.1,17 / 17,9944,2015-10-30 10:09:13:012
-0.2981,1.0726,8.3534,-0.5262,0.8317,9.7571,-0.0293,-0.0599,0.0904,-2.6,16.4,-44.7,15.5,-4.96,3.18,36.81401,-119.74728,273.08,336.99731547286586,2.45,309.6774,138.1,17 / 17,10046,2015-10-30 10:09:13:114
-0.7374,1.5036,9.1973,-0.5667,0.8032,9.7573,-0.0305,-0.0904,0.1613,-2.5,16.8,-44.9,12.6,-4.7,3.32,36.81401,-119.74728,273.08,336.99731547286586,2.45,309.6774,138.1,17 / 17,10148,2015-10-30 10:09:13:216
0.1652,0.735,10.3489,-0.5875,0.7525,9.7601,-0.055,-0.0721,0.2358,-2.2,17.1,-44.7,12.45,-4.45,3.2,36.81401,-119.74728,273.08,336.99731547286586,2.45,309.6774,138.1,17 / 17,10251,2015-10-30 10:09:13:319
-1.1025,0.5327,10.0724,-0.6291,0.7194,9.76,-0.0281,0.1613,0.1881,-1.6,17.5,-44.5,11.81,-4.38,3.2,36.81401,-119.74728,273.08,336.99731547286586,2.45,309.6774,138.1,17 / 17,10352,2015-10-30 10:09:13:420
0.0982,0.0718,11.4982,-0.6778,0.5095,9.7699,-0.1539,-0.0305,0.215,-1.0,17.8,-44.3,11.09,-3.43,3.96,36.81401,-119.74728,273.08,336.99731547286586,2.45,309.6774,138.1,17 / 17,10454,2015-10-30 10:09:13:522
-0.9972,0.5794,9.4978,-0.4893,0.6682,9.7716,0.0244,-0.2737,0.0476,-0.4,18.2,-44.2,6.79,-3.6,3.22,36.814083,-119.74731,257.21,336.99731547286586,2.41,12.903226,,17 / 17,10557,2015-10-30 10:09:13:625
-0.4334,1.0786,8.7269,-0.1964,0.6988,9.7797,0.0464,-0.1136,-0.1759,-0.5,18.1,-44.1,2.4,-4.09,1.15,36.814083,-119.74731,257.21,336.99731547286586,2.41,12.903226,,17 / 17,10659,2015-10-30 10:09:13:727
-0.3974,0.8667,9.8641,-0.1426,0.7137,9.7796,-0.11,-0.0159,-0.1283,-1.2,17.9,-44.5,4.44,-4.34,0.85,36.814083,-119.74731,257.21,336.8937380448869,2.41,12.903226,,17 / 17,10760,2015-10-30 10:09:13:828
-0.5291,1.3755,9.5589,-0.1434,0.655,9.7837,0.1197,-0.0098,-0.2993,-2.2,17.8,-44.6,7.23,-3.83,0.84,36.814083,-119.74731,257.21,336.8937380448869,2.41,12.903226,,17 / 17,10862,2015-10-30 10:09:13:930
-0.8045,1.2175,10.4363,-0.2724,0.8672,9.7644,0.2761,0.066,-0.2358,-2.7,17.9,-44.6,10.7,-4.7,1.38,36.814083,-119.74731,257.21,336.8937380448869,2.41,12.903226,,17 / 17,10965,2015-10-30 10:09:14:033
-0.3232,-0.0431,12.2224,-0.2969,0.9178,9.7591,-0.1429,-0.0391,-0.1918,-3.3,17.7,-44.6,11.17,-5.37,1.74,36.814083,-119.74731,257.21,336.8937380448869,2.41,12.903226,,17 / 17,11066,2015-10-30 10:09:14:134
-0.2203,0.5555,8.7915,-0.4295,0.9522,9.7509,0.259,-0.0904,-0.3091,-3.5,17.7,-44.9,13.43,-4.82,2.78,36.814083,-119.74731,257.21,336.8937380448869,2.41,12.903226,,17 / 17,11168,2015-10-30 10:09:14:236
-0.656,0.5902,9.9395,-0.6107,1.0147,9.7349,-0.1271,0.077,0.2028,-3.5,17.5,-45.0,13.76,-5.96,3.22,36.814083,-119.74731,257.21,336.8937380448869,2.41,12.903226,,17 / 17,11271,2015-10-30 10:09:14:339
0.1018,0.729,8.9842,-0.4408,0.9248,9.753,-0.022,-0.2199,0.1283,-3.4,17.5,-44.8,13.64,-5.45,3.04,36.814083,-119.74731,257.21,336.8937380448869,2.41,12.903226,,17 / 17,11372,2015-10-30 10:09:14:440
-0.4453,1.4772,8.7424,-0.3939,0.981,9.7495,0.0733,0.0684,0.0916,-3.5,17.4,-44.7,12.55,-5.65,2.23,36.814083,-119.74731,257.21,336.8937380448869,2.41,12.903226,,17 / 17,11475,2015-10-30 10:09:14:543
-0.3172,1.3862,9.9419,-0.4718,0.9488,9.7492,-0.077,0.2053,0.3054,-3.5,17.4,-45.0,12.89,-5.75,2.42,36.814083,-119.74731,257.21,336.8937380448869,2.41,12.903226,,17 / 17,11577,2015-10-30 10:09:14:645
0.249,1.397,9.8797,-0.4875,1.0316,9.74,0.077,-0.0073,0.2492,-3.1,17.4,-45.2,13.6,-5.72,2.77,36.814083,-119.74731,257.21,336.8937380448869,2.41,12.903226,,17 / 17,11678,2015-10-30 10:09:14:746
0.0742,0.0599,13.4518,-0.6736,1.0779,9.7239,-0.0061,0.1246,0.2309,-2.1,17.0,-45.3,12.25,-6.97,3.63,36.814083,-119.74731,257.21,336.8937380448869,2.41,12.903226,,17 / 17,11780,2015-10-30 10:09:14:848
0.1245,0.8523,7.4974,-0.5451,1.0482,9.7352,0.1038,-0.0843,-0.0024,-1.6,16.9,-45.4,13.29,-5.58,3.86,36.814083,-119.74731,257.21,336.8937380448869,2.41,12.903226,,17 / 17,11883,2015-10-30 10:09:14:951
-0.4836,0.7015,8.9519,-0.5128,1.1249,9.7284,-0.0415,0.0183,0.11,-1.1,16.6,-45.5,8.68,-6.59,3.01,36.814083,-119.74731,257.21,336.8937380448869,2.41,12.903226,,17 / 17,11985,2015-10-30 10:09:15:053
-0.7578,1.0511,8.9052,-0.5313,1.0779,9.7327,0.0098,0.0183,-0.0782,-1.1,16.6,-45.5,8.96,-6.3,3.11,36.814083,-119.74731,257.21,336.8937380448869,2.41,12.903226,,17 / 17,12086,2015-10-30 10:09:15:154
-0.6632,1.3264,9.4451,-0.5353,0.9852,9.7423,-0.1857,-0.0574,-0.1539,-1.2,16.7,-45.2,9.19,-5.77,3.14,36.814083,-119.74731,257.21,336.8937380448869,2.41,12.903226,,17 / 17,12188,2015-10-30 10:09:15:256
-0.7278,1.4676,10.3753,-0.5286,0.8821,9.7526,0.099,0.1075,-0.325,-1.4,17.0,-45.1,8.89,-5.16,2.91,36.814083,-119.74731,257.21,336.8937380448869,2.41,12.903226,,17 / 17,12291,2015-10-30 10:09:15:359
-0.5974,1.5263,9.5241,-0.5565,0.98,9.7417,0.0428,-0.0586,-0.2566,-1.9,17.5,-44.8,11.59,-5.45,3.25,36.814083,-119.74731,257.21,336.8937380448869,2.41,12.903226,,17 / 17,12393,2015-10-30 10:09:15:461
-0.8643,0.492,11.1271,-0.6622,0.9759,9.7355,-0.2199,0.2847,-0.1014,-2.4,17.6,-44.9,11.52,-6.08,3.34,36.814083,-119.74731,257.21,336.8937380448869,2.41,12.903226,,17 / 17,12495,2015-10-30 10:09:15:563
-0.0826,0.6704,8.8502,-0.6462,0.9792,9.7362,0.2309,-0.1161,-0.2639,-2.9,17.7,-45.1,14.95,-5.73,3.8,36.814083,-119.74731,257.21,336.8937380448869,2.41,12.903226,,17 / 17,12596,2015-10-30 10:09:15:664
-0.8787,0.8344,8.8873,-0.7328,1.1264,9.7141,0.1527,0.1503,-0.1063,-3.3,17.5,-45.4,14.38,-6.44,3.66,36.814083,-119.74731,257.21,336.8937380448869,2.41,12.903226,,17 / 17,12699,2015-10-30 10:09:15:767
-0.0563,0.6716,9.5493,-0.6942,1.0288,9.7278,0.0,-0.1087,0.0806,-3.4,17.3,-45.4,16.47,-6.05,4.33,36.814083,-119.74731,257.21,336.8937380448869,2.41,12.903226,,17 / 17,12800,2015-10-30 10:09:15:868
-0.4405,1.4533,9.0764,-0.7146,1.1534,9.7123,0.0782,0.0904,0.2272,-3.4,17.1,-45.6,15.84,-6.58,4.1,36.814083,-119.74731,257.21,336.8937380448869,2.41,12.903226,,17 / 17,12903,2015-10-30 10:09:15:971
-0.2753,1.3312,9.9144,-0.7427,1.1454,9.7112,-0.0257,0.1038,0.3176,-3.1,17.1,-45.7,16.11,-6.76,4.28,36.814083,-119.74731,257.21,336.8937380448869,2.41,12.903226,,17 / 17,13005,2015-10-30 10:09:16:073
-0.1963,1.6676,10.2807,-0.7074,1.1667,9.7113,-0.0269,-0.0012,0.2663,-2.5,16.9,-45.8,13.45,-6.83,4.17,36.814083,-119.74731,257.21,336.8937380448869,2.41,12.903226,,17 / 17,13107,2015-10-30 10:09:16:175
-0.8224,1.5467,9.2416,-0.7362,1.1859,9.7068,0.011,0.0269,0.2101,-1.9,16.7,-45.7,13.87,-6.89,4.4,36.814083,-119.74731,257.21,336.8937380448869,2.41,12.903226,,17 / 17,13209,2015-10-30 10:09:16:277
-0.2849,0.7326,9.8414,-0.7731,1.0074,9.7241,0.2077,-0.1906,-0.0819,-1.1,16.8,-45.8,12.12,-5.9,4.55,36.814083,-119.74731,257.21,336.8937380448869,2.41,12.903226,,17 / 17,13311,2015-10-30 10:09:16:379
-1.6077,1.2246,9.1339,-0.7904,1.1831,9.7029,0.1381,0.1356,-0.1417,-0.8,16.8,-45.4,10.87,-6.85,4.17,36.814083,-119.74731,257.21,336.8937380448869,2.41,12.903226,,17 / 17,13412,2015-10-30 10:09:16:480
-0.2227,0.6081,9.0417,-0.6629,1.0122,9.7317,-0.0476,-0.1295,0.0073,-0.7,16.9,-45.5,11.18,-6.05,4.18,36.814083,-119.74731,257.21,336.8937380448869,2.41,12.903226,,17 / 17,13515,2015-10-30 10:09:16:583
-0.9218,1.0151,9.3589,-0.6155,1.0122,9.7348,-0.1112,-0.0538,-0.0843,-0.9,17.0,-45.3,10.45,-6.06,3.82,36.814083,-119.74731,257.21,336.8937380448869,2.41,12.903226,,17 / 17,13616,2015-10-30 10:09:16:684
-0.844,1.2258,8.7676,-0.531,0.9421,9.7468,-0.0391,-0.1649,-0.2065,-1.3,17.2,-45.3,9.32,-5.52,3.17,36.814083,-119.74731,257.21,336.8937380448869,2.41,12.903226,,17 / 17,13718,2015-10-30 10:09:16:786
-0.9493,1.1779,10.4232,-0.5217,0.9025,9.7511,-0.0037,0.0086,-0.281,-2.1,17.5,-45.3,11.29,-5.28,3.06,36.814083,-119.74731,257.21,336.8937380448869,2.41,12.903226,,17 / 17,13821,2015-10-30 10:09:16:889
-0.7997,1.5191,9.4212,-0.5299,1.0211,9.7389,0.1222,-0.0782,-0.3946,-2.7,17.8,-45.3,13.76,-5.77,3.17,36.814083,-119.74731,257.21,336.8937380448869,2.41,12.903226,,17 / 17,13923,2015-10-30 10:09:16:991
-0.3089,0.2729,9.7636,-0.625,0.8898,9.7462,0.0733,-0.1356,-0.1796,-3.4,17.8,-45.4,14.96,-5.21,3.67,36.814083,-119.74731,257.21,336.8937380448869,2.41,12.903226,,17 / 17,14024,2015-10-30 10:09:17:092
-0.0419,0.0575,10.0149,-0.5508,0.9256,9.7473,0.1197,-0.0061,-0.2456,-3.9,17.9,-45.3,16.59,-5.1,3.23,36.814083,-119.74731,257.21,336.8937380448869,2.41,12.903226,,17 / 17,14127,2015-10-30 10:09:17:195
-0.3029,0.5339,9.1973,-0.5783,1.198,9.716,0.1515,0.0586,-0.1002,-4.4,17.6,-45.6,15.88,-6.91,3.31,36.814083,-119.74731,257.21,336.8937380448869,2.41,12.903226,,17 / 17,14229,2015-10-30 10:09:17:297
0.0742,0.3268,9.7923,-0.5046,1.1437,9.7266,0.0623,-0.0904,0.0122,-4.8,17.2,-45.8,18.77,-6.73,3.2,36.814083,-119.74731,257.21,336.8937380448869,2.41,12.903226,,17 / 17,14331,2015-10-30 10:09:17:399
-0.2394,0.735,9.3482,-0.4539,1.2432,9.7169,0.2004,0.0501,0.0147,-5.1,16.7,-45.9,17.58,-6.88,2.6,36.814083,-119.74731,257.21,336.8937380448869,2.41,12.903226,,17 / 17,14432,2015-10-30 10:09:17:500
-0.1604,0.6225,9.4511,-0.4925,1.2314,9.7166,-0.0965,0.1527,0.3506,-5.1,16.2,-46.4,18.72,-7.21,2.9,36.814083,-119.74731,257.21,336.8937380448869,2.41,12.903226,,17 / 17,14535,2015-10-30 10:09:17:603
0.0826,0.9912,9.7456,-0.3841,1.0547,9.7422,-0.011,-0.1222,-0.0293,-4.9,16.0,-46.6,19.06,-6.44,2.82,36.814083,-119.74731,257.21,336.8937380448869,2.41,12.903226,,17 / 17,14637,2015-10-30 10:09:17:705
-0.2789,1.1528,9.7193,-0.5283,1.1227,9.7278,0.0929,0.2346,-0.0489,-4.5,16.2,-46.7,16.52,-6.38,2.76,36.814083,-119.74731,257.21,336.8937380448869,2.41,12.903226,,17 / 17,14738,2015-10-30 10:09:17:806
0.0251,1.2306,9.4858,-0.5946,1.1399,9.722,-0.0916,-0.0977,0.0513,-4.1,16.3,-46.8,18.31,-6.81,3.78,36.814083,-119.74731,257.21,336.8937380448869,2.41,12.903226,,17 / 17,14840,2015-10-30 10:09:17:908
-0.1353,1.2486,9.9994,-0.4609,1.1274,9.7307,0.022,0.0061,-0.0709,-3.9,16.3,-46.5,16.41,-6.52,2.76,36.814083,-119.74731,257.21,336.8937380448869,2.41,12.903226,,17 / 17,14943,2015-10-30 10:09:18:011
-0.4944,1.3659,9.7827,-0.4596,1.1485,9.7283,0.0538,0.0782,-0.0757,-3.9,16.1,-46.4,16.07,-6.7,2.64,36.814083,-119.74731,257.21,336.8937380448869,2.41,12.903226,,17 / 17,15045,2015-10-30 10:09:18:113
-0.9218,1.3922,9.1794,-0.4718,1.1688,9.7253,0.0183,-0.0501,-0.1026,-4.1,16.1,-46.3,16.26,-6.84,2.78,36.814083,-119.74731,257.21,336.8937380448869,2.41,12.903226,,17 / 17,15147,2015-10-30 10:09:18:215
-1.0367,1.1516,9.7719,-0.4896,1.0887,9.7337,-0.0709,0.1026,0.0403,-4.3,16.1,-46.5,16.27,-6.49,2.69,36.814083,-119.74731,257.21,336.8937380448869,2.41,12.903226,,17 / 17,15248,2015-10-30 10:09:18:316
-0.8092,1.1851,9.8725,-0.5564,1.0338,9.7361,-0.1503,0.0428,0.0819,-4.4,16.3,-46.5,17.71,-6.05,3.27,36.814083,-119.74731,257.21,336.8937380448869,2.41,12.903226,,17 / 17,15350,2015-10-30 10:09:18:418
-1.0822,1.2977,9.6079,-0.5756,1.0298,9.7354,0.0904,-0.0379,0.0428,-4.4,16.7,-46.1,17.04,-5.89,3.27,36.814083,-119.74731,257.21,336.8937380448869,2.41,12.903226,,17 / 17,15453,2015-10-30 10:09:18:521
-0.4669,1.1516,10.0401,-0.6107,1.0573,9.7303,0.0586,0.0159,0.1845,-4.1,16.8,-45.8,17.59,-6.08,3.62,36.814083,-119.74731,257.21,336.8937380448869,2.41,12.903226,,17 / 17,15554,2015-10-30 10:09:18:622
-0.577,1.1839,9.8031,-0.5983,1.0772,9.7289,0.0867,0.0733,0.0941,-3.7,16.8,-46.0,17.28,-6.31,3.52,36.814083,-119.74731,257.21,336.8937380448869,2.41,12.903226,,17 / 17,15657,2015-10-30 10:09:18:725
-0.4501,1.3491,9.7348,-0.6102,1.1392,9.7211,0.0195,-0.0379,0.0843,-3.5,16.7,-46.4,14.83,-6.67,3.59,36.814083,-119.74731,257.21,336.8937380448869,2.41,12.903226,,17 / 17,15759,2015-10-30 10:09:18:827
-0.4357,1.4269,9.5768,-0.5725,1.181,9.7184,0.0696,0.0,0.0244,-3.4,16.6,-46.5,14.53,-6.7,3.45,36.814083,-119.74731,257.21,336.8937380448869,2.41,12.903226,,17 / 17,15861,2015-10-30 10:09:18:929
-0.5818,1.3431,9.8318,-0.5556,1.186,9.7188,-0.0391,0.0269,0.0171,-3.2,16.4,-46.4,14.51,-6.93,3.17,36.814083,-119.74731,257.21,336.8937380448869,2.41,12.903226,,17 / 17,15963,2015-10-30 10:09:19:031
-0.5435,1.4952,9.7109,-0.5489,1.2316,9.7135,0.0342,0.0855,-0.0244,-3.2,16.2,-46.3,14.36,-7.16,3.15,36.814083,-119.74731,257.21,336.8937380448869,2.41,12.903226,,17 / 17,16065,2015-10-30 10:09:19:133
-0.3699,1.4413,9.9264,-0.5303,1.2564,9.7114,-0.0049,-0.077,-0.0696,-3.3,16.1,-46.1,14.44,-7.36,3.24,36.814083,-119.74731,257.21,336.8937380448869,2.41,12.903226,,17 / 17,16166,2015-10-30 10:09:19:234
-0.6213,1.2222,9.5624,-0.5352,1.317,9.7031,0.0342,-0.0489,-0.0147,-3.5,15.9,-45.8,14.11,-7.72,3.16,36.814083,-119.74731,257.21,336.8937380448869,2.41,12.903226,,17 / 17,16268,2015-10-30 10:09:19:336
-0.4441,1.3156,9.6869,-0.4765,1.3404,9.7029,0.0098,-0.0819,-0.0171,-3.6,15.8,-45.7,16.16,-7.87,3.01,36.814083,-119.74731,257.21,336.8937380448869,2.41,12.903226,,17 / 17,16370,2015-10-30 10:09:19:438
-0.0395,1.506,9.7947,-0.4644,1.3232,9.7059,0.0403,0.0281,-0.1173,-3.8,15.6,-45.8,15.63,-7.92,2.75,36.814083,-119.74731,257.21,336.8937380448869,2.41,12.903226,,17 / 17,16473,2015-10-30 10:09:19:541
-0.2023,1.4066,9.9551,-0.4622,1.3086,9.708,-0.0428,-0.0513,-0.3372,-4.0,15.6,-46.1,15.77,-7.76,2.78,36.814083,-119.74731,257.21,336.8937380448869,2.41,12.903226,,17 / 17,16574,2015-10-30 10:09:19:642
-0.2083,1.3168,9.1734,-0.3859,1.2929,9.7134,-0.0464,-0.16,-0.5486,-4.7,15.7,-46.5,17.49,-7.59,2.38,36.814083,-119.74731,257.21,336.8937380448869,2.41,12.903226,,17 / 17,16676,2015-10-30 10:09:19:744
-0.2334,1.5383,9.2093,-0.2655,1.168,9.7332,-0.0171,0.033,-0.6194,-6.1,15.9,-46.6,18.68,-6.91,1.56,36.814083,-119.74731,257.21,336.8937380448869,2.41,12.903226,,17 / 17,16779,2015-10-30 10:09:19:847
0.1041,1.2115,9.6343,-0.2787,1.0969,9.7411,-0.1038,-0.0855,-0.6292,-7.3,16.0,-46.4,21.66,-6.67,1.78,36.814083,-119.74731,257.21,336.8937380448869,2.41,12.903226,,17 / 17,16880,2015-10-30 10:09:19:948
0.4513,0.7721,10.4842,-0.2527,0.9377,9.7584,-0.1857,-0.0599,-0.8137,-8.8,16.3,-46.2,26.39,-5.91,1.54,36.814083,-119.74731,257.21,336.8937380448869,2.41,12.903226,,17 / 17,16982,2015-10-30 10:09:20:050
0.6381,0.9828,9.9886,-0.2627,0.7971,9.7707,-0.0648,-0.0403,-0.9493,-10.7,16.8,-45.8,30.31,-4.79,1.41,36.814083,-119.74731,257.21,336.8937380448869,2.41,12.903226,,17 / 17,17085,2015-10-30 10:09:20:153
0.6273,0.7769,9.6965,-0.2577,0.7627,9.7735,0.0232,-0.0941,-1.0458,-12.4,16.8,-45.4,32.84,-4.46,1.51,36.814083,-119.74731,257.21,336.8937380448869,2.41,12.903226,,17 / 17,17186,2015-10-30 10:09:20:254
0.6033,0.8703,9.6438,-0.237,0.8687,9.7652,0.1185,-0.0806,-1.1753,-14.1,16.4,-45.2,37.44,-4.9,1.44,36.814083,-119.74731,257.21,336.8937380448869,2.41,12.903226,,17 / 17,17289,2015-10-30 10:09:20:357
0.4896,0.5399,9.924,-0.1983,0.9783,9.7557,0.1136,-0.2211,-1.2694,-16.7,14.9,-45.4,43.19,-5.67,1.46,36.814083,-119.74731,257.21,336.8937380448869,2.41,12.903226,,17 / 17,17390,2015-10-30 10:09:20:458
-0.0922,0.5291,9.8545,-0.1807,1.0581,9.7477,0.0831,-0.1662,-1.2657,-18.6,13.5,-45.6,46.77,-6.07,1.18,36.814083,-119.74731,257.21,336.8937380448869,2.41,12.903226,,17 / 17,17493,2015-10-30 10:09:20:561
-0.3663,1.1337,9.1794,-0.1265,1.145,9.7388,0.0977,-0.314,-1.1313,-21.3,10.9,-45.5,53.66,-6.58,1.04,36.814083,-119.74731,257.21,336.8937380448869,2.41,12.903226,,17 / 17,17595,2015-10-30 10:09:20:663
-0.1113,1.1061,9.5864,-0.0784,1.1641,9.737,0.0086,-0.0452,-0.9407,-23.0,9.1,-45.3,58.75,-6.72,0.47,36.814083,-119.74731,257.21,336.8937380448869,2.41,12.903226,,17 / 17,17697,2015-10-30 10:09:20:765
0.1604,0.9876,8.5389,-0.0147,1.1694,9.7367,0.0367,-0.2627,-0.9835,-25.1,6.6,-45.0,64.39,-6.54,0.23,36.814083,-119.74731,257.21,336.8937380448869,2.41,12.903226,,17 / 17,17798,2015-10-30 10:09:20:866
-0.2215,0.6979,10.1167,-0.0536,1.2165,9.7308,0.0513,-0.121,-1.1228,-26.3,4.9,-44.9,68.19,-7.08,0.27,36.814083,-119.74731,257.21,336.8937380448869,2.41,12.903226,,17 / 17,17900,2015-10-30 10:09:20:968
0.3364,0.6249,9.159,0.1083,1.2429,9.727,-0.0379,-0.2663,-1.3476,-27.7,2.0,-44.5,74.54,-7.36,-0.46,36.814083,-119.74731,257.21,336.8937380448869,2.41,12.903226,,17 / 17,18003,2015-10-30 10:09:21:071
-0.3543,0.3531,10.058,0.0583,1.1941,9.7335,0.0037,-0.2871,-1.6994,-28.8,-1.5,-44.2,81.33,-7.0,-0.31,36.814083,-119.74731,257.21,336.8937380448869,2.41,12.903226,,17 / 17,18104,2015-10-30 10:09:21:172
-0.3986,0.2119,9.1459,0.0707,1.2231,9.7298,0.1222,-0.2077,-1.8607,-29.2,-4.5,-43.9,87.21,-6.97,-0.48,36.814083,-119.74731,257.21,336.8937380448869,2.41,12.903226,,17 / 17,18207,2015-10-30 10:09:21:275
-0.5076,0.1269,9.6415,0.0511,1.1965,9.7333,-0.0464,-0.2248,-1.9694,-29.2,-10.9,-43.8,100.68,-7.15,-0.41,36.814083,-119.74731,257.21,336.8937380448869,2.41,12.903226,,17 / 17,18308,2015-10-30 10:09:21:376
-1.0487,0.6345,9.7671,0.0458,1.1403,9.74,-0.0024,-0.2639,-1.7923,-27.7,-14.9,-43.1,109.47,-6.75,-0.27,36.814083,-119.74731,257.21,336.8937380448869,2.41,12.903226,,17 / 17,18411,2015-10-30 10:09:21:479
-1.3946,0.7482,9.7695,0.0979,1.0879,9.7456,-0.0403,-0.3311,-1.675,-26.0,-18.8,-41.8,118.72,-6.52,-0.39,36.814083,-119.74731,257.21,336.8937380448869,2.41,12.903226,,17 / 17,18512,2015-10-30 10:09:21:580
-1.0379,0.9038,10.1586,0.2126,1.0017,9.753,-0.1503,-0.2993,-1.3635,-25.2,-20.4,-41.5,122.51,-6.07,-0.93,36.814083,-119.74731,257.21,336.8937380448869,2.41,12.903226,,17 / 17,18615,2015-10-30 10:09:21:683
-0.6129,0.6859,9.5038,0.2088,0.8881,9.7641,-0.0183,-0.1173,-1.1203,-23.4,-22.8,-41.3,130.94,-5.23,-1.33,36.814083,-119.74731,257.21,336.8937380448869,2.41,12.903226,,17 / 17,18716,2015-10-30 10:09:21:784
-0.2346,0.2574,9.8138,0.1221,0.9497,9.7598,0.099,0.088,-1.1008,-21.7,-24.3,-41.2,133.31,-5.18,-0.84,36.814083,-119.74731,257.21,336.8937380448869,2.41,12.903226,,17 / 17,18819,2015-10-30 10:09:21:887
-0.1341,0.5471,9.4822,0.085,1.0942,9.745,0.1515,0.0367,-0.909,-19.1,-26.2,-41.2,138.9,-6.35,-0.61,36.814083,-119.74731,257.21,336.8937380448869,2.41,12.903226,,17 / 17,18920,2015-10-30 10:09:21:988
-0.1006,0.4178,10.4435,0.0322,1.0668,9.7484,-0.121,-0.0318,-0.4899,-16.3,-27.8,-41.2,145.83,-6.24,-0.19,36.814083,-119.74731,257.21,336.8937380448869,2.41,12.903226,,17 / 17,19022,2015-10-30 10:09:22:090
-0.3412,0.6955,9.7396,0.0194,1.0178,9.7537,0.066,-0.0843,-0.3494,-14.8,-28.7,-41.1,148.73,-5.99,-0.12,36.814083,-119.74731,257.21,336.8937380448869,2.41,12.903226,,17 / 17,19125,2015-10-30 10:09:22:193
-0.2346,0.6919,9.5864,-0.0029,1.0005,9.7555,-0.0513,0.1051,-0.1881,-13.2,-29.3,-40.8,152.53,-5.93,-0.29,36.814083,-119.74731,257.21,336.8937380448869,2.41,12.903226,,17 / 17,19226,2015-10-30 10:09:22:294
-0.504,0.814,9.6582,-0.095,0.9493,9.7601,-0.1075,0.11,0.1515,-12.7,-29.3,-40.8,151.82,-5.74,0.37,36.814083,-119.74731,257.21,336.8937380448869,2.41,12.903226,,17 / 17,19329,2015-10-30 10:09:22:397
0.3053,1.0953,10.2197,-0.1272,0.952,9.7595,0.1246,-0.0061,0.1698,-12.3,-29.3,-40.9,153.28,-5.57,0.75,36.814083,-119.74731,257.21,336.8937380448869,2.41,12.903226,,17 / 17,19430,2015-10-30 10:09:22:498
-0.0587,0.7721,9.1016,-0.0779,1.1129,9.743,0.1539,-0.0929,0.1894,-12.4,-29.2,-40.8,152.89,-6.25,0.67,36.814083,-119.74731,257.21,336.8937380448869,2.41,12.903226,,17 / 17,19533,2015-10-30 10:09:22:601
0.4106,0.996,10.1885,-0.1331,0.9868,9.756,-0.0843,-0.1674,0.3054,-12.7,-29.2,-40.6,151.28,-5.78,0.78,36.814083,-119.74731,257.21,336.8937380448869,2.41,12.903226,,17 / 17,19634,2015-10-30 10:09:22:702
-0.48,1.1516,9.6223,-0.0016,1.0817,9.7468,0.0965,-0.0086,0.2492,-13.1,-29.2,-40.6,152.03,-5.9,0.12,36.814083,-119.74731,257.21,336.8937380448869,2.41,12.903226,,17 / 17,19737,2015-10-30 10:09:22:805
-0.662,0.7961,9.4487,0.0396,1.1478,9.7392,0.1051,-0.0855,0.2786,-14.0,-29.2,-40.1,150.25,-6.54,-0.2,36.814083,-119.74731,257.21,336.8937380448869,2.41,12.903226,,17 / 17,19839,2015-10-30 10:09:22:907
-0.3663,1.1827,9.8234,0.052,1.1852,9.7346,-0.0073,0.0037,0.121,-14.8,-29.2,-39.9,148.3,-6.94,-0.31,36.814083,-119.74731,257.21,336.8937380448869,2.41,12.903226,,17 / 17,19941,2015-10-30 10:09:23:009
-0.0311,1.5886,9.0214,0.1059,1.2343,9.7281,0.1087,-0.1051,-0.1222,-15.5,-29.2,-39.9,148.44,-7.03,-0.48,36.814083,-119.74731,257.21,336.8937380448869,2.41,12.903226,,17 / 17,20042,2015-10-30 10:09:23:110
-0.2885,1.2653,9.4248,0.1208,1.339,9.7141,0.1124,-0.0269,-0.2688,-15.7,-29.4,-39.9,146.56,-7.55,-0.72,36.814083,-119.74731,257.21,336.8937380448869,2.41,12.903226,,17 / 17,20144,2015-10-30 10:09:23:212
-0.0455,1.2414,10.0497,0.0341,1.3739,9.7099,-0.033,0.0611,-0.1613,-15.6,-29.8,-39.7,146.8,-8.1,-0.37,36.814083,-119.74731,257.21,336.8937380448869,2.41,12.903226,,17 / 17,20246,2015-10-30 10:09:23:314
-0.5291,1.391,9.1111,-0.0397,1.4221,9.7029,-0.0428,0.1234,-0.0342,-15.1,-30.4,-39.5,147.96,-8.41,0.01,36.814083,-119.74731,257.21,336.8937380448869,2.41,12.903226,,17 / 17,20348,2015-10-30 10:09:23:416
-0.0886,1.5706,9.1889,-0.0464,1.3667,9.7108,-0.0929,-0.0232,-0.1051,-14.6,-30.5,-39.3,147.95,-8.04,0.29,36.814083,-119.74731,257.21,336.8937380448869,2.41,12.903226,,17 / 17,20450,2015-10-30 10:09:23:518
-0.1915,1.5119,9.4547,-0.0842,1.3431,9.7139,0.0147,0.0464,-0.1075,-14.2,-30.5,-39.4,149.88,-7.75,0.3,36.814083,-119.74731,257.21,336.8937380448869,2.41,12.903226,,17 / 17,20553,2015-10-30 10:09:23:621
-0.2777,1.6568,9.3075,-0.129,1.3356,9.7144,0.0709,-0.0122,-0.0147,-13.9,-30.4,-39.4,149.29,-7.83,0.76,36.814083,-119.74731,257.21,336.8937380448869,2.41,12.903226,,17 / 17,20654,2015-10-30 10:09:23:722
0.0024,1.4521,8.9807,-0.1105,1.3481,9.7129,-0.0538,0.0501,0.1075,-13.7,-30.3,-39.0,149.42,-7.9,0.6,36.814083,-119.74731,257.21,336.8937380448869,2.41,12.903226,,17 / 17,20757,2015-10-30 10:09:23:825
-0.2083,1.5287,9.657,-0.1479,1.2894,9.7204,-0.0305,0.055,-0.0012,-13.6,-30.2,-38.9,149.41,-7.52,0.85,36.814083,-119.74731,257.21,336.8937380448869,2.41,12.903226,,17 / 17,20859,2015-10-30 10:09:23:927
-0.2418,1.5239,9.9611,-0.1661,1.2856,9.7206,-0.0562,-0.1038,0.1087,-13.8,-30.1,-39.2,149.26,-7.53,0.98,36.814083,-119.74731,257.21,336.8937380448869,2.41,12.903226,,17 / 17,20960,2015-10-30 10:09:24:028
0.0144,1.567,9.1913,-0.104,1.3234,9.7164,0.0293,-0.0904,0.1674,-14.1,-30.0,-39.6,149.15,-7.71,0.82,36.814083,-119.74731,257.21,336.8937380448869,2.41,12.903226,,17 / 17,21062,2015-10-30 10:09:24:130
-0.3304,1.4042,9.894,-0.05,1.208,9.7318,-0.2834,-0.2187,0.1527,-14.5,-29.8,-39.8,149.64,-7.6,0.47,36.814083,-119.74731,257.21,336.8937380448869,2.41,12.903226,,17 / 17,21164,2015-10-30 10:09:24:232
-0.2274,2.3391,9.2979,0.0778,1.079,9.7468,-0.0489,-0.0024,-0.0379,-15.2,-29.4,-39.9,148.98,-6.32,-0.46,36.814083,-119.74731,257.21,336.8937380448869,2.41,12.903226,,17 / 17,21266,2015-10-30 10:09:24:334
0.0407,2.0231,9.4152,-0.003,1.1229,9.7421,-0.0403,0.0586,-0.0257,-15.5,-29.2,-39.9,148.68,-6.27,-0.17,36.814083,-119.74731,257.21,336.8937380448869,2.41,12.903226,,17 / 17,21369,2015-10-30 10:09:24:437
-0.4477,2.0937,9.5936,-0.0577,1.1526,9.7385,-0.0476,0.0452,-0.0611,-15.5,-28.8,-40.1,147.71,-6.75,0.34,36.814083,-119.74731,257.21,336.8937380448869,2.41,12.903226,,17 / 17,21470,2015-10-30 10:09:24:538
-0.091,2.0877,9.5265,-0.0996,1.2137,9.7307,-0.0672,-0.0941,-0.0476,-15.3,-28.7,-40.4,146.94,-7.14,0.73,36.814083,-119.74731,257.21,336.8937380448869,2.41,12.903226,,17 / 17,21573,2015-10-30 10:09:24:641
0.0814,2.083,9.7719,-0.0945,1.2016,9.7323,-0.0904,0.0073,-0.1857,-15.1,-28.6,-40.6,147.13,-7.13,0.44,36.814083,-119.74731,257.21,336.8937380448869,2.41,12.903226,,17 / 17,21674,2015-10-30 10:09:24:742
-0.146,0.9828,11.5424,-0.2587,1.1676,9.7335,-0.2309,0.2309,-0.0843,-14.8,-28.6,-40.6,146.36,-7.07,1.15,36.814083,-119.74731,257.21,336.8937380448869,2.41,12.903226,,17 / 17,21776,2015-10-30 10:09:24:844
-0.3148,0.929,10.477,-0.3431,1.1027,9.7384,0.055,-0.0831,-0.2981,-14.1,-28.4,-40.7,146.44,-6.46,2.02,36.814083,-119.74731,257.21,336.8937380448869,2.41,12.903226,,17 / 17,21879,2015-10-30 10:09:24:947
-0.1341,1.3635,8.4048,-0.2769,1.2394,9.7241,0.1881,0.0012,-0.4618,-13.6,-28.5,-40.9,146.89,-7.08,1.19,36.814083,-119.74731,257.21,336.8937380448869,2.41,12.903226,,17 / 17,21980,2015-10-30 10:09:25:048
0.2717,0.923,8.7999,-0.5532,1.2504,9.7109,-0.0855,-0.2309,-0.0061,-12.3,-28.9,-40.9,148.8,-7.33,3.26,36.814083,-119.74731,257.21,336.8937380448869,2.41,12.903226,,17 / 17,22083,2015-10-30 10:09:25:151
-0.0575,1.2486,9.4942,-0.5681,1.2117,9.7149,0.0904,0.0476,-0.0757,-11.6,-29.2,-41.0,149.26,-7.17,2.98,36.814083,-119.74731,257.21,336.8937380448869,2.41,12.903226,,17 / 17,22184,2015-10-30 10:09:25:252
-0.2873,1.397,9.7516,-0.6652,1.238,9.7054,-0.0403,0.1344,0.0757,-10.8,-29.3,-41.1,150.19,-7.21,3.66,36.814083,-119.74731,257.21,336.8937380448869,2.41,12.903226,,17 / 17,22286,2015-10-30 10:09:25:354
-0.419,1.245,10.0533,-0.7477,1.3169,9.689,0.0892,0.1307,0.2553,-10.7,-29.2,-41.1,149.12,-7.55,4.3,36.814083,-119.74731,257.21,336.8937380448869,2.41,12.903226,,17 / 17,22388,2015-10-30 10:09:25:456
-1.6592,0.5614,11.8357,-0.7781,1.2259,9.6986,-0.4704,0.0195,0.5046,-10.6,-29.1,-40.8,149.07,-7.18,4.59,36.814083,-119.74731,257.21,336.8937380448869,2.41,12.903226,,17 / 17,22490,2015-10-30 10:09:25:558
-0.1844,0.7278,8.4503,-0.4248,1.1732,9.7269,0.2138,-0.4056,0.2908,-11.0,-28.7,-41.0,150.61,-6.29,3.89,36.814083,-119.74731,257.21,336.8937380448869,2.41,12.903226,,17 / 17,22593,2015-10-30 10:09:25:661
-0.1544,0.644,9.8533,-0.2844,1.1911,9.7299,-0.0855,-0.1344,0.1686,-12.4,-28.3,-40.9,149.52,-7.15,1.94,36.814083,-119.74731,257.21,336.8937380448869,2.41,12.903226,,17 / 17,22694,2015-10-30 10:09:25:762
-0.3328,1.3898,8.4707,-0.2284,1.21,9.729,0.1332,-0.011,-0.2859,-13.4,-27.9,-40.9,148.62,-6.85,1.4,36.814083,-119.74731,257.21,336.8937380448869,2.41,12.903226,,17 / 17,22796,2015-10-30 10:09:25:864
-0.8595,1.4365,9.1291,-0.3074,1.1781,9.7308,-0.1515,0.0635,-0.1576,-14.1,-28.0,-40.4,146.64,-6.94,1.66,36.814083,-119.74731,257.21,336.8937380448869,2.41,12.903226,,17 / 17,22899,2015-10-30 10:09:25:967
-0.4477,1.8004,9.8485,-0.2381,1.1449,9.7367,0.0098,0.0122,-0.2883,-13.8,-28.2,-40.4,147.14,-6.7,1.4,36.814083,-119.74731,257.21,336.8937380448869,2.41,12.903226,,17 / 17,23000,2015-10-30 10:09:26:068
-0.3735,1.4497,10.8649,-0.3363,1.1905,9.7283,-0.1466,-0.0696,-0.2578,-13.3,-28.2,-40.6,147.88,-7.12,1.81,36.814083,-119.74731,257.21,336.8937380448869,2.41,12.903226,,17 / 17,23102,2015-10-30 10:09:26:170
0.3077,-0.0587,10.3717,-0.475,0.9818,9.7458,-0.0171,-0.3555,-0.1698,-12.5,-28.0,-40.6,149.59,-5.75,2.79,36.814083,-119.74731,257.21,336.8937380448869,2.41,12.903226,,17 / 17,23204,2015-10-30 10:09:26:272
-0.6069,0.7374,8.1762,-0.2566,1.0395,9.748,0.2431,-0.1026,-0.4814,-12.0,-27.9,-40.5,151.66,-5.81,1.23,36.814083,-119.74731,257.21,336.8937380448869,2.41,12.903226,,17 / 17,23306,2015-10-30 10:09:26:374
-0.2969,0.492,9.6199,-0.3668,1.0008,9.7486,-0.1173,-0.0904,0.033,-11.3,-27.9,-40.8,152.14,-5.86,2.15,36.814083,-119.74731,257.21,336.8937380448869,2.41,12.903226,,17 / 17,23409,2015-10-30 10:09:26:477
0.0263,1.0523,8.6479,-0.2153,0.9877,9.7544,0.0318,-0.0171,-0.0012,-11.1,-27.9,-41.0,153.13,-5.71,1.5,36.814083,-119.74731,257.21,336.8937380448869,2.41,12.903226,,17 / 17,23510,2015-10-30 10:09:26:578
-0.4489,1.5802,9.323,-0.1985,1.0299,9.7504,-0.099,-0.0171,0.0122,-11.2,-28.0,-41.0,153.34,-6.03,1.17,36.814083,-119.74731,257.21,336.8937380448869,2.41,12.903226,,17 / 17,23612,2015-10-30 10:09:26:680
0.1448,1.4724,10.756,-0.3045,1.0968,9.7404,0.0342,-0.0648,0.1625,-11.3,-28.0,-40.8,152.11,-6.36,1.89,36.814083,-119.74731,257.21,336.8937380448869,2.41,12.903226,,17 / 17,23714,2015-10-30 10:09:26:782
-0.6668,1.1241,10.0221,-0.4958,1.148,9.7266,-0.1552,0.2334,0.2431,-11.5,-28.0,-41.0,151.05,-6.8,2.42,36.814083,-119.74731,257.21,336.8937380448869,2.41,12.903226,,17 / 17,23817,2015-10-30 10:09:26:885
-0.4034,0.7111,8.1427,-0.464,1.0415,9.7401,0.0073,-0.2602,0.1784,-11.5,-27.9,-41.0,151.21,-6.1,2.73,36.814083,-119.74731,257.21,336.8937380448869,2.41,12.903226,,17 / 17,23918,2015-10-30 10:09:26:986
-0.2825,0.723,9.5984,-0.4453,1.0924,9.7354,-0.0305,-0.0464,0.1136,-11.6,-27.8,-41.0,149.28,-6.4,2.62,36.814083,-119.74731,257.21,336.8937380448869,2.41,12.903226,,17 / 17,24020,2015-10-30 10:09:27:088
-0.2502,1.3276,8.4551,-0.3052,1.0262,9.748,0.0599,-0.0061,-0.1576,-11.9,-27.6,-41.0,150.6,-5.94,1.86,36.814083,-119.74731,257.21,336.8937380448869,2.41,12.903226,,17 / 17,24123,2015-10-30 10:09:27:191
-0.2286,1.1756,9.9419,-0.3034,0.9677,9.7541,-0.0232,-0.1026,-0.2211,-12.2,-27.5,-41.0,149.87,-5.66,1.78,36.814083,-119.74731,257.21,336.8937380448869,2.41,12.903226,,17 / 17,24225,2015-10-30 10:09:27:293
-0.8428,1.2917,10.173,-0.2241,0.9896,9.754,0.1393,-0.0293,-0.3641,-12.3,-27.3,-41.0,150.56,-5.57,1.31,36.814083,-119.74731,257.21,336.8937380448869,2.41,12.903226,,17 / 17,24326,2015-10-30 10:09:27:394
-0.7183,1.0319,10.5213,-0.213,1.0265,9.7504,-0.1576,-0.0464,-0.0757,-11.9,-27.5,-41.1,149.99,-6.18,1.37,36.814083,-119.74731,257.21,336.8937380448869,2.41,12.903226,,17 / 17,24429,2015-10-30 10:09:27:497
-0.2083,0.6357,8.0649,-0.2728,0.9831,9.7534,0.2126,-0.1784,-0.3506,-11.4,-27.6,-41.0,152.95,-5.75,1.6,36.814083,-119.74731,257.21,336.8937380448869,2.41,12.903226,,17 / 17,24530,2015-10-30 10:09:27:598
-0.7266,0.7434,9.0501,-0.4619,1.0276,9.7417,0.0049,0.303,-0.1112,-11.0,-27.9,-41.1,152.22,-6.35,1.82,36.814083,-119.74731,257.21,336.8937380448869,2.41,12.903226,,17 / 17,24632,2015-10-30 10:09:27:700
-0.0144,1.0989,9.2763,-0.4119,0.9291,9.7538,-0.0428,-0.1087,-0.0293,-10.4,-27.9,-41.5,153.72,-5.51,2.59,36.814083,-119.74731,257.21,336.8937380448869,2.41,12.903226,,17 / 17,24734,2015-10-30 10:09:27:802
-0.4118,1.3312,9.1219,-0.4226,0.9655,9.7499,0.0159,-0.0159,0.1429,-10.2,-28.1,-41.9,153.64,-5.57,2.49,36.814083,-119.74731,257.21,336.8937380448869,2.41,12.903226,,17 / 17,24836,2015-10-30 10:09:27:904
-0.2466,1.1109,9.9036,-0.4572,0.9863,9.7462,-0.0086,0.1356,0.2896,-10.1,-28.1,-41.9,153.57,-5.65,2.49,36.814083,-119.74731,257.21,336.8937380448869,2.41,12.903226,,17 / 17,24938,2015-10-30 10:09:28:006
0.176,1.1169,11.133,-0.497,1.03,9.7397,0.0599,0.1564,0.1185,-10.5,-28.1,-41.5,152.9,-6.03,2.92,36.814083,-119.74731,257.21,336.8937380448869,2.41,12.903226,,17 / 17,25040,2015-10-30 10:09:28:108
-0.2765,0.6859,11.643,-0.6657,1.0405,9.7285,-0.1576,0.0709,0.3922,-10.7,-28.1,-41.4,149.62,-6.42,3.78,36.814083,-119.74731,257.21,336.8937380448869,2.41,12.903226,,17 / 17,25142,2015-10-30 10:09:28:210
-0.9278,0.9577,8.8226,-0.4781,1.1557,9.7266,-0.0929,0.0733,0.2834,-11.1,-28.1,-41.6,150.34,-6.47,3.01,36.814083,-119.74731,257.21,336.8937380448869,2.41,12.903226,,17 / 17,25245,2015-10-30 10:09:28:313
0.2059,0.9553,8.0134,-0.339,1.1383,9.7345,0.0941,-0.1918,0.2321,-11.8,-28.2,-41.8,148.97,-6.52,2.62,36.814083,-119.74731,257.21,336.8937380448869,2.41,12.903226,,17 / 17,25346,2015-10-30 10:09:28:414
-0.5327,1.4976,8.4731,-0.2395,1.1229,9.7392,-0.0672,-0.0171,-0.1136,-12.5,-28.2,-41.6,150.54,-6.62,1.36,36.814083,-119.74731,257.21,336.8937380448869,2.41,12.903226,,17 / 17,25448,2015-10-30 10:09:28:516
0.1544,1.1708,10.5848,-0.1792,1.0092,9.7529,0.0855,-0.0562,-0.4386,-13.3,-28.3,-41.6,149.52,-5.95,1.16,36.814083,-119.74731,257.21,336.8937380448869,2.41,12.903226,,17 / 17,25550,2015-10-30 10:09:28:618
-0.7554,1.3228,10.3142,-0.2341,1.1068,9.7412,0.0757,0.0061,-0.3738,-13.2,-28.3,-41.6,149.02,-6.35,1.28,36.814083,-119.74731,257.21,336.8937380448869,2.41,12.903226,,17 / 17,25653,2015-10-30 10:09:28:721
0.3232,-0.4441,11.9471,-0.443,0.9017,9.7551,-0.2932,0.5437,-0.0562,-12.4,-28.6,-42.1,151.75,-5.76,1.73,36.814083,-119.74731,257.21,336.8937380448869,2.41,12.903226,,17 / 17,25754,2015-10-30 10:09:28:822
-0.1676,0.7314,8.7197,-0.3002,0.9285,9.758,0.16,0.3201,-0.292,-11.7,-28.6,-42.2,151.94,-5.28,1.85,36.814083,-119.74731,257.21,336.8937380448869,2.41,12.903226,,17 / 17,25856,2015-10-30 10:09:28:924
0.1975,0.5471,9.6223,-0.4638,0.8802,9.756,-0.1075,0.055,-0.0159,-10.6,-28.8,-42.2,152.35,-5.44,2.84,36.814083,-119.74731,257.21,336.8937380448869,2.41,12.903226,,17 / 17,25958,2015-10-30 10:09:29:026
-0.1748,1.0594,8.8669,-0.3956,0.8353,9.763,0.0244,-0.0391,-0.0501,-10.2,-28.7,-42.2,155.16,-4.85,2.4,36.814083,-119.74731,257.21,336.8937380448869,2.41,12.903226,,17 / 17,26060,2015-10-30 10:09:29:128
-0.6572,1.2175,9.5181,-0.4853,0.951,9.7484,0.1552,0.1576,0.1393,-9.8,-28.7,-42.0,154.59,-5.28,2.61,36.814083,-119.74731,257.21,336.8937380448869,2.41,12.903226,,17 / 17,26162,2015-10-30 10:09:29:230
0.6105,0.7853,10.0604,-0.4652,1.0369,9.7406,0.1234,-0.0635,0.2505,-9.8,-28.8,-41.9,153.57,-5.83,3.09,36.814083,-119.74731,257.21,336.8937380448869,2.41,12.903226,,17 / 17,26265,2015-10-30 10:09:29:333
-0.5614,0.7745,11.1462,-0.5686,1.0759,9.7309,-0.0843,0.2871,0.2993,-10.1,-29.0,-41.7,152.89,-6.3,3.34,36.814083,-119.74731,257.21,336.8937380448869,2.41,12.903226,,17 / 17,26367,2015-10-30 10:09:29:435
-0.1508,0.747,8.321,-0.3656,0.9836,9.7503,0.1527,-0.2492,-0.0232,-10.7,-28.8,-41.7,152.88,-5.6,2.35,36.814083,-119.74731,257.21,336.8937380448869,2.41,12.903226,,17 / 17,26468,2015-10-30 10:09:29:536
-1.1169,0.7195,9.9587,-0.444,0.8872,9.7563,-0.0794,-0.2468,0.0061,-11.1,-28.8,-42.0,152.52,-5.38,2.74,36.814083,-119.74731,257.21,336.8937380448869,2.41,12.903226,,17 / 17,26571,2015-10-30 10:09:29:639
-0.2634,1.2426,8.4743,-0.2954,0.8394,9.7662,-0.0403,-0.0721,-0.1698,-11.7,-28.5,-42.4,151.41,-4.91,1.73,36.814083,-119.74731,257.21,336.8937380448869,2.41,12.903226,,17 / 17,26673,2015-10-30 10:09:29:741
-0.5088,0.9182,9.7695,-0.3297,0.8319,9.7657,-0.1381,0.044,-0.1222,-11.8,-28.4,-42.6,151.07,-5.08,1.78,36.814083,-119.74731,257.21,336.8937380448869,2.41,12.903226,,17 / 17,26774,2015-10-30 10:09:29:842
-0.504,1.1241,9.7815,-0.1988,0.8215,9.7702,0.0305,0.0745,-0.4105,-11.7,-28.3,-42.5,152.45,-4.71,1.06,36.814083,-119.74731,257.21,336.8937380448869,2.41,12.903226,,17 / 17,26877,2015-10-30 10:09:29:945
-0.8595,0.9948,9.669,-0.2296,0.8755,9.7648,0.1429,0.0134,-0.3152,-11.4,-28.5,-42.8,153.19,-5.05,1.6,36.814083,-119.74731,257.21,336.8937380448869,2.41,12.903226,,17 / 17,26978,2015-10-30 10:09:30:046
0.0443,-0.4645,11.564,-0.2303,0.773,9.7734,-0.1307,0.237,-0.0232,-10.8,-28.6,-42.6,154.71,-4.61,1.39,36.814083,-119.74731,257.21,336.8937380448869,2.41,12.903226,,17 / 17,27081,2015-10-30 10:09:30:149
-0.6704,0.334,9.1482,-0.1406,0.8944,9.7648,0.1234,0.2932,-0.1637,-10.1,-28.7,-42.2,157.07,-5.23,0.82,36.814083,-119.74731,257.21,336.8937380448869,2.41,12.903226,,17 / 17,27182,2015-10-30 10:09:30:250
0.085,0.012,9.7013,-0.2599,0.8359,9.7675,-0.0391,0.0391,0.182,-9.8,-28.7,-41.9,156.27,-5.16,1.43,36.814083,-119.74731,257.21,336.8937380448869,2.41,12.903226,,17 / 17,27284,2015-10-30 10:09:30:352
-0.8691,0.3519,9.7612,-0.3141,0.748,9.773,-0.0855,0.0916,0.2248,-9.5,-28.8,-42.0,158.1,-4.37,1.84,36.814083,-119.74731,257.21,336.8937380448869,2.41,12.903226,,17 / 17,27386,2015-10-30 10:09:30:454
-0.7254,0.911,8.9591,-0.334,0.781,9.7698,-0.0623,0.1112,0.5339,-9.5,-28.8,-42.0,157.93,-4.64,1.85,36.814083,-119.74731,257.21,336.8937380448869,2.41,12.903226,,17 / 17,27488,2015-10-30 10:09:30:556
-0.565,0.6668,10.1394,-0.468,0.735,9.7679,0.1381,0.1075,0.7831,-10.3,-28.5,-42.0,154.19,-4.3,2.74,36.814083,-119.74731,257.21,336.8937380448869,2.41,12.903226,,17 / 17,27590,2015-10-30 10:09:30:658
-0.6033,1.0463,9.0237,-0.4612,0.9782,9.7468,0.2761,-0.0403,0.8723,-11.2,-28.3,-42.1,151.8,-4.76,2.91,36.814083,-119.74731,257.21,336.8937380448869,2.41,12.903226,,17 / 17,27693,2015-10-30 10:09:30:761
0.0455,-0.1305,9.8067,-0.4542,0.7704,9.7658,-0.1723,-0.2969,1.2022,-13.3,-27.7,-42.5,147.88,-4.71,3.3,36.814083,-119.74731,257.21,336.8937380448869,2.41,12.903226,,17 / 17,27795,2015-10-30 10:09:30:863
-0.5279,0.3986,8.7999,-0.1382,0.832,9.7703,-0.1491,0.2395,0.7391,-15.2,-27.1,-42.8,146.11,-4.86,0.85,36.814083,-119.74731,257.21,336.8937380448869,2.41,12.903226,,17 / 17,27896,2015-10-30 10:09:30:964
0.152,-0.0036,10.4902,-0.1824,0.6569,9.7829,-0.2395,-0.1026,0.7074,-17.7,-26.1,-42.9,140.2,-4.26,1.29,36.814083,-119.74731,257.21,336.8937380448869,2.41,12.903226,,17 / 17,27998,2015-10-30 10:09:31:066
-1.3934,1.3024,9.3506,-0.3743,0.8,9.7668,0.0122,0.0232,0.2211,-19.9,-24.8,-42.9,134.92,-4.63,2.11,36.814083,-119.74731,257.21,336.8937380448869,2.41,12.903226,,17 / 17,28100,2015-10-30 10:09:31:168
0.996,0.4381,9.8773,-0.4519,0.791,9.7642,-0.0281,0.0464,-0.0098,-20.7,-23.9,-42.6,131.8,-4.63,2.65,36.814083,-119.74731,257.21,336.8937380448869,2.41,12.903226,,17 / 17,28202,2015-10-30 10:09:31:270
-1.239,1.148,9.0561,-0.6488,0.8917,9.7445,0.0904,0.0562,-0.463,-20.6,-24.0,-42.6,131.15,-4.79,3.22,36.814083,-119.74731,257.21,336.8937380448869,2.41,12.903226,,17 / 17,28305,2015-10-30 10:09:31:373
-0.9864,0.7578,9.5684,-0.7154,0.9355,9.7357,0.0745,0.0293,-0.1344,-19.8,-24.3,-42.6,130.82,-5.34,4.35,36.814083,-119.74731,257.21,336.8937380448869,2.41,12.903226,,17 / 17,28406,2015-10-30 10:09:31:474
-0.6596,0.1377,10.659,-0.7146,0.9081,9.7383,-0.0428,0.2896,-0.2138,-18.7,-25.2,-42.8,133.61,-5.31,4.2,36.814083,-119.74731,257.21,336.8937380448869,2.41,12.903226,,17 / 17,28508,2015-10-30 10:09:31:576
-0.5818,0.346,9.4942,-0.8378,0.9608,9.7234,0.1051,0.121,-0.2004,-18.0,-25.6,-42.9,135.38,-5.59,4.84,36.814083,-119.74731,257.21,336.8937380448869,2.41,12.903226,,17 / 17,28611,2015-10-30 10:09:31:679
-0.4142,1.1827,9.0525,-0.8467,1.0585,9.7125,0.1283,-0.1136,-0.2456,-17.3,-26.3,-42.8,135.97,-6.2,4.98,36.814083,-119.74731,257.21,336.8937380448869,2.41,12.903226,,17 / 17,28713,2015-10-30 10:09:31:781
-0.6273,1.0858,9.8964,-0.8726,1.0435,9.7119,-0.1173,0.1283,0.1649,-16.8,-26.7,-42.4,137.57,-6.36,4.77,36.814083,-119.74731,257.21,336.8937380448869,2.41,12.903226,,17 / 17,28815,2015-10-30 10:09:31:883
-0.4717,1.2689,9.6426,-0.7923,1.1482,9.7069,0.3286,-0.2993,0.0049,-16.6,-27.0,-42.0,137.26,-6.31,5.16,36.814083,-119.74731,257.21,336.8937380448869,2.41,12.903226,,17 / 17,28916,2015-10-30 10:09:31:984
-1.1432,0.8487,9.4272,-0.6506,1.2067,9.7104,-0.1124,-0.0953,0.3677,-16.8,-27.3,-41.9,137.23,-7.43,4.01,36.814083,-119.74731,257.21,336.8937380448869,2.41,12.903226,,17 / 17,29019,2015-10-30 10:09:32:087
0.3819,1.0116,9.2572,-0.2365,0.9335,9.7592,-0.16,-0.5315,0.0159,-17.9,-26.8,-41.9,139.44,-5.69,2.04,36.814083,-119.74731,257.21,336.8937380448869,2.41,12.903226,,17 / 17,29120,2015-10-30 10:09:32:188
-0.0718,0.6584,10.4004,-0.4074,0.8502,9.7612,-0.2505,0.0257,-0.193,-19.0,-26.3,-41.8,137.13,-4.97,2.39,36.814083,-119.74731,257.21,336.8937380448869,2.41,12.903226,,17 / 17,29222,2015-10-30 10:09:32:290
-0.7913,1.1049,9.2069,-0.3268,0.7436,9.773,-0.1258,-0.1148,-0.2114,-19.4,-25.8,-42.0,138.03,-4.42,1.99,36.814083,-119.74731,257.21,336.8937380448869,2.41,12.903226,,17 / 17,29325,2015-10-30 10:09:32:393
-0.3986,0.8679,9.5301,-0.2794,0.6373,9.7819,-0.0745,0.0269,-0.1515,-19.1,-25.6,-42.2,139.03,-3.73,1.64,36.814083,-119.74731,257.21,336.8937380448869,2.41,12.903226,,17 / 17,29427,2015-10-30 10:09:32:495
-0.6967,0.7183,10.3813,-0.3986,0.5525,9.783,-0.1405,0.1588,0.0305,-18.7,-25.5,-42.4,137.81,-3.57,1.75,36.814083,-119.74731,257.21,336.8937380448869,2.41,12.903226,,17 / 17,29529,2015-10-30 10:09:32:597
0.0407,0.583,9.7731,-0.4814,0.5515,9.7793,-0.1014,0.055,0.1686,-18.3,-25.4,-42.6,138.29,-3.38,2.73,36.814083,-119.74731,257.21,336.8937380448869,2.41,12.903226,,17 / 17,29631,2015-10-30 10:09:32:699
-0.0455,0.5231,9.815,-0.4439,0.528,9.7824,0.0,-0.0733,-0.0073,-18.1,-25.2,-43.1,138.54,-3.08,2.78,36.814083,-119.74731,257.21,336.8937380448869,2.41,12.903226,,17 / 17,29732,2015-10-30 10:09:32:800
0.2454,0.4357,9.5349,-0.3857,0.5409,9.7841,0.0232,-0.011,-0.0342,-18.1,-25.2,-43.3,138.91,-3.1,2.39,36.814083,-119.74731,257.21,336.8937380448869,2.41,12.903226,,17 / 17,29835,2015-10-30 10:09:32:903
-0.4944,0.6081,9.2955,-0.3946,0.5576,9.7828,-0.0929,0.0293,0.1185,-18.1,-25.2,-43.6,138.94,-3.22,2.13,36.814083,-119.74731,257.21,336.8937380448869,2.41,12.903226,,17 / 17,29936,2015-10-30 10:09:33:004
-0.1401,0.6081,9.9527,-0.4235,0.5491,9.7821,0.0232,0.0709,-0.0012,-18.0,-25.3,-43.4,138.85,-3.12,2.43,36.814083,-119.74731,257.21,336.8937380448869,2.41,12.903226,,17 / 17,30039,2015-10-30 10:09:33:107
-0.5674,0.9218,9.7025,-0.3987,0.6271,9.7785,0.0696,0.0244,-0.0648,-17.9,-25.5,-43.4,138.42,-3.67,2.33,36.814083,-119.74731,257.21,336.8937380448869,2.41,12.903226,,17 / 17,30141,2015-10-30 10:09:33:209
-0.6548,0.929,9.8904,-0.4893,0.7602,9.7649,0.2737,0.2896,0.0819,-17.7,-25.7,-43.1,139.16,-4.03,2.5,36.814083,-119.74731,257.21,336.8937380448869,2.41,12.903226,,17 / 17,30243,2015-10-30 10:09:33:311
-0.3938,1.0403,9.6379,-0.5816,0.9331,9.7448,0.0342,0.0684,0.0611,-17.4,-26.2,-42.7,138.02,-5.53,3.58,36.814083,-119.74731,257.21,336.8937380448869,2.41,12.903226,,17 / 17,30344,2015-10-30 10:09:33:412
-0.2753,1.1217,9.8773,-0.6431,0.9497,9.7393,-0.0415,0.0562,0.0721,-17.2,-26.5,-42.6,137.77,-5.61,3.75,36.814083,-119.74731,257.21,336.8937380448869,2.41,12.903226,,17 / 17,30447,2015-10-30 10:09:33:515
-0.3831,1.1325,9.8474,-0.6841,0.9867,9.7329,0.0513,0.0806,0.0318,-17.1,-26.7,-42.8,138.62,-5.77,4.02,36.814083,-119.74731,257.21,336.8937380448869,2.41,12.903226,,17 / 17,30549,2015-10-30 10:09:33:617
-0.7087,1.1791,9.7456,-0.7536,1.0415,9.722,0.0806,0.0086,0.0134,-17.0,-26.8,-42.8,138.23,-5.91,4.29,36.814083,-119.74731,257.21,336.8937380448869,2.41,12.903226,,17 / 17,30651,2015-10-30 10:09:33:719
-0.9637,1.1325,9.8031,-0.8987,1.107,9.7024,0.0635,0.1991,0.1197,-16.8,-27.0,-42.4,137.39,-6.41,4.91,36.814083,-119.74731,257.21,336.8937380448869,2.41,12.903226,,17 / 17,30752,2015-10-30 10:09:33:820
-1.0008,1.3515,9.2919,-0.9195,1.1773,9.6922,0.1063,0.0696,0.0782,-16.7,-27.0,-42.1,136.65,-6.71,5.4,36.814083,-119.74731,257.21,336.8937380448869,2.41,12.903226,,17 / 17,30855,2015-10-30 10:09:33:923
-0.7745,1.4054,5.3726,-0.899,1.255,9.6844,0.1197,0.0354,-0.0159,-16.6,-27.3,-41.8,136.33,-7.14,5.28,36.814083,-119.74731,257.21,336.8937380448869,2.41,12.903226,,17 / 17,30956,2015-10-30 10:09:34:024